Time,P (deg/s),Q (deg/s),R (deg/s),P dot (deg/s^2),Q dot (deg/s^2),R dot (deg/s^2),P_{inertial} (deg/s),Q_{inertial} (deg/s),R_{inertial} (deg/s),q bar (psf),Reynolds Number,V_{Total} (ft/s),V_{Inertial} (ft/s),UBody,VBody,WBody,UdotBody,VdotBody,WdotBody,UdotBody_i,VdotBody_i,WdotBody_i,BodyAccel_X,BodyAccel_Y,BodyAccel_Z,Aero V_{X Body} (ft/s),Aero V_{Y Body} (ft/s),Aero V_{Z Body} (ft/s),V_{X_{inertial}} (ft/s),V_{Y_{inertial}} (ft/s),V_{Z_{inertial}} (ft/s),V_{X_{ecef}} (ft/s),V_{Y_{ecef}} (ft/s),V_{Z_{ecef}} (ft/s),V_{North} (ft/s),V_{East} (ft/s),V_{Down} (ft/s),Rho (slugs/ft^3),Absolute Viscosity,Kinematic Viscosity,Temperature (R),P_{SL} (psf),P_{Ambient} (psf),Turbulence Magnitude (ft/sec),Turbulence X Direction (deg),Wind V_{North} (ft/s),Wind V_{East} (ft/s),Wind V_{Down} (ft/s),Roll Turbulence (deg/sec),Pitch Turbulence (deg/sec),Yaw Turbulence (deg/sec),I_{xx},I_{xy},I_{xz},I_{yx},I_{yy},I_{yz},I_{zx},I_{zy},I_{zz},Mass,Weight,X_{cg},Y_{cg},Z_{cg},Altitude ASL (ft),Altitude AGL (ft),Phi (deg),Theta (deg),Psi (deg),Q(1)_{LOCAL},Q(2)_{LOCAL},Q(3)_{LOCAL},Q(4)_{LOCAL},Q(1)_{ECEF},Q(2)_{ECEF},Q(3)_{ECEF},Q(4)_{ECEF},Q(1)_{ECI},Q(2)_{ECI},Q(3)_{ECI},Q(4)_{ECI},Alpha (deg),Beta (deg),Latitude (deg),Latitude Geodetic (deg),Longitude (deg),X_{ECI} (ft),Y_{ECI} (ft),Z_{ECI} (ft),X_{ECEF} (ft),Y_{ECEF} (ft),Z_{ECEF} (ft),Earth Position Angle (deg),Distance AGL (ft),Terrain Elevation (ft),/fdm/jsbsim/sensor/imu/accelX_true_fps2,/fdm/jsbsim/sensor/imu/accelY_true_fps2,/fdm/jsbsim/sensor/imu/accelZ_true_fps2,/fdm/jsbsim/sensor/imu/gyroX_true_rps,/fdm/jsbsim/sensor/imu/gyroY_true_rps,/fdm/jsbsim/sensor/imu/gyroZ_true_rps,/fdm/jsbsim/sensor/imu/gyroX_true_rps,/fdm/jsbsim/sensor/imu/gyroY_true_rps,/fdm/jsbsim/sensor/imu/gyroZ_true_rps,/fdm/jsbsim/sensor/gps/lat_true_rad,/fdm/jsbsim/sensor/gps/long_true_rad,/fdm/jsbsim/sensor/gps/alt_true_m,/fdm/jsbsim/sensor/gps/vNorth_true_mps,/fdm/jsbsim/sensor/gps/vEast_true_mps,/fdm/jsbsim/sensor/gps/vDown_true_mps,/fdm/jsbsim/sensor/pitot/presStatic_true_pa,/fdm/jsbsim/sensor/pitot/presTip_true_pa,/fdm/jsbsim/sensor/pitot/temp_true_C
0,0,0,0,0.001001726113626,24948.4120005483,0.00512935110501,3.91381377204718E-19,-0.002968449199998,-0.002940172240113,0,0,0,1084.14125128,0,0,0,-0.000238542258174,0.107835372233393,-2772.2359651221,-105.686644066646,-1966.78486756613,1950.78662223232,-0.000238542258175,1.52216022248517E-13,-2804.30104985236,0,0,0,1082.57939478411,-58.1730754815681,0,0,0,0,0,0,0,0.002376911753,3.737213588E-07,0.0001572297997,518.67,2116.228,2116.228,0,0,0,0,0,0,0,0,0.05273832175,0,-0.01032494063,0,0.06369013378,0,-0.01032494063,0,0.1133088485,0.1342341375,4.318855716,8.7401574936,0,1.8110236248,0,0,-2.98147456113466E-16,2.08726855498417E-15,90,0.707106781186548,-1.47196168001604E-17,1.10400772284331E-17,0.707106781186547,-0.384754380473224,0.92262871571208,-0.024771144364242,0.010330056003211,-0.384754380473224,0.92262871571208,-0.024771144364242,0.010330056003211,0,0,44.725801,44.917901276915,-93.075866,-797753.127612059,-14845890.3182973,14725685.2045231,-797753.127612059,-14845890.3182973,14725685.2045231,0,0,0,65.7145545238477,6.25663634977007E-05,-3121.44635553998,6.83089366321221E-21,-5.18092122181524E-05,-5.13156861657033E-05,6.83089366321221E-21,-5.18092122181524E-05,-5.13156861657033E-05,0.78396527036794,-1.62448031584504,0,0,0,0,101325.54685928,0,15
0.02,0.073191340129706,3.49279340857874E-05,0.014761701795346,-1.49688194441936,0.017980464851169,-0.301653484913333,0.073772658342722,-0.002933521256987,0.011879570294228,3.408057958E-10,2.79350444,0.000535508445679,1084.14128491,-1.8796440903581E-06,0.000535504530438,-8.12534147705713E-07,7.70573792662391E-05,0.053816128920622,0.000128636036482,0.002315033245076,0.041200021601955,-0.038313932165593,6.33984758063399,-0.054019140167176,-31.4319694221766,-1.8796440903581E-06,0.000535504530438,-8.12534147705713E-07,1082.57947175707,-58.1722697428539,-0.000380167699519,-2.22371952945118E-05,-0.000376493456491,-0.00038016769952,-0.000535504530414,-2.00319576279855E-06,-4.24860696805073E-07,0.00237686392,3.737199857E-07,0.0001572323861,518.6675475,2116.228,2116.175407,0,0,0,0,0,0,0,0,0.05273832175,0,-0.01032494063,0,0.06369013378,0,-0.01032494063,0,0.1133088485,0.1342341375,4.318855716,8.7401574936,0,1.8110236248,0.68772320449352,0.68772320449352,-1.77457870163387E-07,11.4034117198576,90.000000628463,0.703608445958617,-0.070250618500058,0.070250615550264,0.703608453893903,-0.380389851869529,0.91703782997597,-0.062873704480289,0.101941533599642,-0.380389907622171,0.917037864362018,-0.06287320294438,0.101941325561134,0,0,44.725800999967,44.917901270569,-93.075866,-797736.915138791,-14845891.6788045,14725685.6884755,-797753.153830724,-14845890.8062172,14725685.6884755,6.2671111983606E-05,0.68772320449352,0,6.33988802845386,-0.145315073080189,-31.4347397855734,0.001287575786029,-5.11996046116721E-05,0.000207337615356,0.001287575786029,-5.11996046116721E-05,0.000207337615356,0.783965270257172,-1.62448031584504,0.209618032729626,-0.00016322178087,-6.10574068500998E-07,-1.29497540386186E-07,101323.028692068,6.62036768188874E-08,14.9986374828305
0.04,0.081919896832096,0.000126009980751,0.01652286806325,-1.05155167222822,0.001055337175431,-0.212032314804479,0.082501199327776,-0.002842518428745,0.013640814984864,1.076267489E-09,4.964276822,0.000951640572544,1084.14128534,-2.16410601566417E-06,0.000951634078046,2.77082289830362E-06,2.76741064188351E-05,-0.002583764102915,-0.000139520772617,0.004333672792288,0.080658602266291,0.001934889516774,6.3397985755467,-0.111282992948551,-31.4322338242105,-2.16410601566417E-06,0.000951634078046,2.77082289830362E-06,1082.57954145025,-58.170980771533,-0.000678349968203,-3.73842228908976E-05,-0.000666380911963,-0.000678349968265,-0.000951633993024,-1.57356091612924E-06,3.16964074415844E-06,0.00237686392,3.737199857E-07,0.0001572323861,518.6675475,2116.228,2116.175407,0,0,0,0,0,0,0,0,0.05273832175,0,-0.01032494063,0,0.06369013378,0,-0.01032494063,0,0.1133088485,0.1342341375,4.318855716,8.7401574936,0,1.8110236248,0.68772324547172,0.68772324547172,0.001574675983459,11.4034136296148,90.0003119973359,0.703607498356528,-0.07024115130563,0.070260106232611,0.703609399054703,-0.380402232684974,0.917032637325643,-0.06287480719432,0.101941366013993,-0.380402362771493,0.917032717566971,-0.062873636950035,0.101940880574268,0,0,44.725800999922,44.917901270524,-93.075866,-797715.26354872,-14845892.8422381,14725685.6884638,-797753.153831381,-14845890.8062288,14725685.6884638,0.000146232594628,0.68772324547172,0,6.33973565092707,-0.112073095673243,-31.4321064391337,0.001439917565114,-4.96113056302085E-05,0.000238077134141,0.001439917565114,-4.96113056302085E-05,0.000238077134141,0.783965270256388,-1.62448031584505,0.209618045219779,-0.000290058041074,-4.79621367236192E-07,9.66106498819491E-07,101323.028691917,5.93111935676312E-08,14.9986374827492
0.06,0.058093537669807,0.000102459136331,0.011716998626452,-1.59577694521296,-0.002488446805018,-0.321816106412892,0.058674824819736,-0.00286614677015,0.008835022276971,5.858938177E-10,3.662733645,0.000702137706605,1084.14128568,-1.43782020867009E-06,0.000702135629535,9.21655019308026E-07,3.7955437750909E-05,-0.017699346435834,-3.97493432171435E-05,0.004937606658992,0.091345598118022,0.012607935578866,6.33980975704478,-0.127243775277856,-31.4321316134516,-1.43782020867009E-06,0.000702135629535,9.21655019308026E-07,1082.57963597995,-58.1692279879152,-0.000499717306326,-2.76914316827436E-05,-0.00049245624923,-0.000499717306415,-0.00070213556528,-1.22721904769726E-06,1.2251643857327E-06,0.00237686392,3.737199857E-07,0.0001572323861,518.6675475,2116.228,2116.175407,0,0,0,0,0,0,0,0,0.05273832175,0,-0.01032494063,0,0.06369013378,0,-0.01032494063,0,0.1133088485,0.1342341375,4.318855716,8.7401574936,0,1.8110236248,0.68772320076823,0.68772320076823,0.003115349000301,11.4034161019244,90.0006166068976,0.703606570830885,-0.070231893331489,0.070269394677298,0.703610323193627,-0.380414344386644,0.917027556669924,-0.062875887984083,0.101941206951372,-0.380414548806726,0.917027682767331,-0.062874049038757,0.10194044409289,0,0,44.725800999876,44.917901270478,-93.075866,-797693.611956956,-14845894.0056404,14725685.6884519,-797753.153832042,-14845890.8062405,14725685.6884519,0.000229794077273,0.68772320076823,0,6.33979755107246,-0.125877450492016,-31.4321156028128,0.001024068881135,-5.00236979845173E-05,0.00015420022822,0.001024068881135,-5.00236979845173E-05,0.00015420022822,0.783965270255587,-1.62448031584505,0.209618031594157,-0.000214010920297,-3.74056365738126E-07,3.73430104771328E-07,101323.028692081,3.59119024672724E-08,14.9986374828378
0.08,0.026936779527789,4.95133502931062E-05,0.005433474946333,-1.38773276054123,-0.002652139089933,-0.279967424549154,0.027518057104869,-0.002919140924303,0.002551546488762,1.30167568E-10,1.726423248,0.000330951408733,1084.14128632,-6.71473113907366E-07,0.000330950562769,3.30255737361591E-07,3.50389877217307E-05,-0.017215157947416,-1.41187023873037E-05,0.004922308085633,0.091022897106652,0.012246422972796,6.33980746704916,-0.127287113415415,-31.4321045929996,-6.71473113907366E-07,0.000330950562769,3.30255737361591E-07,1082.57973543417,-58.1673888596946,-0.000235472099625,-1.30705024912797E-05,-0.000232187181397,-0.000235472099675,-0.000330950530152,-5.92924811717345E-07,4.79581443671073E-07,0.00237686392,3.737199857E-07,0.0001572323861,518.6675475,2116.228,2116.175407,0,0,0,0,0,0,0,0,0.05273832175,0,-0.01032494063,0,0.06369013378,0,-0.01032494063,0,0.1133088485,0.1342341375,4.318855716,8.7401574936,0,1.8110236248,0.68772318214178,0.68772318214178,0.004076949095497,11.4034177467165,90.0008067275849,0.703605991787395,-0.07022611567711,0.070275192637078,0.703610899862724,-0.380421903724321,0.917024385436934,-0.062876562900864,0.101941108510036,-0.380422182479178,0.91702455738683,-0.062874055256896,0.101940068227925,0,0,44.725800999848,44.91790127045,-93.075866,-797671.960363239,-14845895.1690065,14725685.6884446,-797753.153832447,-14845890.8062477,14725685.6884446,0.000313355559918,0.68772318214178,0,6.339802218592,-0.128117913976292,-31.4320808953426,0.000480280700232,-5.09486204588023E-05,4.45328872466003E-05,0.000480280700232,-5.09486204588023E-05,4.45328872466003E-05,0.783965270255096,-1.62448031584505,0.209618025916815,-0.00010087372159,-1.80723482611447E-07,1.46176424030943E-07,101323.028692149,1.00900628319047E-08,14.9986374828747
0.1,0.003350678747542,4.83229149358914E-06,0.000675940323341,-0.806422080576716,-0.001554234440687,-0.162651271492311,0.003931952759939,-0.002963839991433,-0.002205970302866,2.447974754E-12,0.2367551024,4.53854144792E-05,1084.14128685,-8.06432735147287E-08,4.53852500147272E-05,9.17889638467174E-08,2.06933881127253E-05,-0.010744873326746,-5.30687170283381E-06,0.004666002853034,0.086485193868129,0.007641162414762,6.3397933257437,-0.121013239108378,-31.4320952107381,-8.06432735147287E-08,4.53852500147272E-05,9.17889638467174E-08,1082.57983156457,-58.1656096245907,-3.23223889518765E-05,-1.77039651493221E-06,-3.18113928658858E-05,-3.23223889590107E-05,-4.53852418513997E-05,-6.09037145521481E-08,1.093651356888E-07,0.00237686392,3.737199857E-07,0.0001572323861,518.6675475,2116.228,2116.175407,0,0,0,0,0,0,0,0,0.05273832175,0,-0.01032494063,0,0.06369013378,0,-0.01032494063,0,0.1133088485,0.1342341375,4.318855716,8.7401574936,0,1.8110236248,0.68772317841649,0.68772317841649,0.0044349746352,11.4034183532779,90.0008775179035,0.703605776160987,-0.070223964495782,0.070277351314601,0.703611114584259,-0.380424718229619,0.917023204702816,-0.062876814201675,0.101941071802929,-0.380425071319955,0.917023422502214,-0.062873637856899,0.101939754102768,0,0,44.725800999838,44.91790127044,-93.075866,-797650.30876756,-14845896.3323363,14725685.6884421,-797753.153832586,-14845890.8062502,14725685.6884421,0.000396917042563,0.68772317841649,0,6.33979579708683,-0.122733168638221,-31.43208737378,6.86255216938199E-05,-5.17287663527841E-05,-3.85014449862364E-05,6.86255216938199E-05,-5.17287663527841E-05,-3.85014449862364E-05,0.783965270254928,-1.62448031584505,0.209618024781346,-1.38334217163066E-05,-1.85634521954948E-08,3.33344933579463E-08,101323.028692163,6.13211357280188E-10,14.9986374828821
0.12,-0.008404434220201,-1.81596383541804E-05,-0.00169503051728,-0.257244466407968,-0.00063243571608,-0.051888192987963,-0.007823159805676,-0.00298682987923,-0.004576943165907,1.158814242E-11,0.5151133342,9.87460542188E-05,1084.14128713,2.07223343245616E-07,-9.87458177342879E-05,6.13372029751626E-08,9.03040776338655E-06,-0.003981955832198,-3.63617200015683E-06,0.004399617528487,0.081736659374357,0.002833080304675,6.33978160171241,-0.114228049633845,-31.4320936181457,2.07223343245616E-07,-9.87458177342879E-05,6.13372029751626E-08,1082.57992210704,-58.1639295682107,7.01489361710241E-05,3.94404720801927E-06,6.93855494282061E-05,7.01489361865455E-05,9.87458189037823E-05,2.15261097172448E-07,1.1731096295694E-08,0.00237686392,3.737199857E-07,0.0001572323861,518.6675475,2116.228,2116.175407,0,0,0,0,0,0,0,0,0.05273832175,0,-0.01032494063,0,0.06369013378,0,-0.01032494063,0,0.1133088485,0.1342341375,4.318855716,8.7401574936,0,1.8110236248,0.6877231746912,0.6877231746912,0.004394376264782,11.403418245779,90.0008694933921,0.703605800619263,-0.070224208193217,0.070277106291427,0.703611090277184,-0.380424399097902,0.917023338627794,-0.062876785599167,0.101941075645963,-0.380424826523779,0.917023602275045,-0.062872940549785,0.101939480536772,0,0,44.725800999841,44.917901270442,-93.075866,-797628.657170014,-14845897.4956316,14725685.6884426,-797753.153832555,-14845890.8062497,14725685.6884426,0.000480478525208,0.6877231746912,0,6.33978149523272,-0.115745230933898,-31.4320750395016,-0.000136539896519,-5.21300155895125E-05,-7.98827279217226E-05,-0.000136539896519,-5.21300155895125E-05,-7.98827279217226E-05,0.783965270254964,-1.62448031584505,0.209618023645878,3.00977256018728E-05,6.56115824181621E-08,3.57563815092754E-09,101323.028692177,3.23249497555891E-10,14.9986374828895
0.14,-0.010642172916163,-2.35922790217835E-05,-0.002146418572984,0.080859754887927,0.000279144185715,0.016305504785043,-0.01006089647146,-0.00299225224092,-0.005028341400515,1.939002658E-11,0.6663234263,0.000127732684857,1084.14128719,2.73937477718226E-07,-0.000127732387933,2.8492921498981E-08,-7.03322157033291E-07,0.000474887706318,-4.33989085609223E-06,0.004221628770808,0.078606474871169,-0.000334539720712,6.33977170076373,-0.109659096787797,-31.4320947390155,2.73937477718226E-07,-0.000127732387933,2.8492921498981E-08,1082.58000808473,-58.1623303763754,9.07765474733959E-05,5.09560446150761E-06,8.97178467455876E-05,9.07765474936456E-05,0.000127732385736,2.74164757472804E-07,-3.53879422013685E-08,0.00237686392,3.737199857E-07,0.0001572323861,518.6675475,2116.228,2116.175407,0,0,0,0,0,0,0,0,0.05273832175,0,-0.01032494063,0,0.06369013378,0,-0.01032494063,0,0.1133088485,0.1342341375,4.318855716,8.7401574936,0,1.8110236248,0.68772317841649,0.68772317841649,0.004190018514055,11.4034178138002,90.000829090724,0.703605923727361,-0.070225435543676,0.070275873608648,0.703610967793355,-0.380422792648872,0.917024012658282,-0.062876641905337,0.101941095898417,-0.380423294410138,0.917024322152377,-0.062872128148456,0.101939223386934,0,0,44.725800999847,44.917901270449,-93.075866,-797607.005570706,-14845898.6588941,14725685.6884443,-797753.153832459,-14845890.806248,14725685.6884443,0.000564040007852,0.68772317841649,0,6.33977390903762,-0.110539021345032,-31.4320983413047,-0.000175595769129,-5.22246536542278E-05,-8.77611133533364E-05,-0.000175595769129,-5.22246536542278E-05,-8.77611133533364E-05,0.783965270255079,-1.62448031584505,0.209618024781346,3.89328311722469E-05,8.35654180777106E-08,-1.07862447829771E-08,101323.028692163,9.38754285419986E-10,14.9986374828821
0.16,-0.007820261377562,-1.58450776964997E-05,-0.001576918619878,0.203114972556762,0.000311783260567,0.040937341782146,-0.007238982904099,-0.002984494769433,-0.004458851617444,1.068213816E-11,0.4945668188,9.48073339579E-05,1084.14128711,2.05002710708913E-07,-9.48071122525314E-05,-3.52614071172749E-09,-6.61940210278657E-06,0.002299026652246,3.70363969270837E-06,0.004148798852373,0.077331385191631,-0.001637008684493,6.33976563417537,-0.107722945071059,-31.4320871293819,2.05002710708913E-07,-9.48071122525314E-05,-3.52614071172749E-09,1082.58009159137,-58.1607746600839,6.73943116736001E-05,3.77797083112633E-06,6.65745015950437E-05,6.73943116887553E-05,9.48071090407023E-05,2.00259762443595E-07,-5.04539626034949E-08,0.00237686392,3.737199857E-07,0.0001572323861,518.6675475,2116.228,2116.175407,0,0,0,0,0,0,0,0,0.05273832175,0,-0.01032494063,0,0.06369013378,0,-0.01032494063,0,0.1133088485,0.1342341375,4.318855716,8.7401574936,0,1.8110236248,0.68772318214178,0.68772318214178,0.003985836774963,11.4034173936985,90.0007887277293,0.703606046690217,-0.070226661911317,0.070274642055872,0.703610845435653,-0.380421187572446,0.917024686095652,-0.062876498412822,0.101941116209934,-0.380421763668929,0.917025041435894,-0.062871315947429,0.10193896629844,0,0,44.725800999853,44.917901270455,-93.075866,-797585.353969708,-14845899.8221251,14725685.688446,-797753.153832368,-14845890.8062464,14725685.688446,0.000647601490497,0.68772318214178,0,6.33977007377161,-0.10800523517821,-31.4320934711669,-0.000126344086172,-5.2089260235159E-05,-7.78216415822723E-05,-0.000126344086172,-5.2089260235159E-05,-7.78216415822723E-05,0.783965270255188,-1.62448031584505,0.209618025916815,2.88972068356061E-05,6.10391755928078E-08,-1.53783678015452E-08,101323.028692149,6.39585592257925E-10,14.9986374828747
0.18,-0.003743864593988,-7.97717255493563E-06,-0.000755717953552,0.184300605913307,0.000258827854865,0.037264759355451,-0.003162584821546,-0.002976620289321,-0.003637657461915,2.515266833E-12,0.239987108,4.60049825953E-05,1084.14128702,9.68627647188505E-08,-4.60048307875178E-05,6.77156682699645E-08,-4.95830897874453E-06,0.002288137203504,-3.86395718250001E-06,0.004148938140021,0.077333528242507,-0.001623809603478,6.33976720487521,-0.107662123994648,-31.4320949765005,9.68627647188505E-08,-4.60048307875178E-05,6.77156682699645E-08,1082.58017448264,-58.1592300216604,3.26545369499001E-05,1.84701407393754E-06,3.23531788112033E-05,3.26545369572731E-05,4.60048338063305E-05,1.08339632985693E-07,4.41933113730091E-08,0.00237686392,3.737199857E-07,0.0001572323861,518.6675475,2116.228,2116.175407,0,0,0,0,0,0,0,0,0.05273832175,0,-0.01032494063,0,0.06369013378,0,-0.01032494063,0,0.1133088485,0.1342341375,4.318855716,8.7401574936,0,1.8110236248,0.68772318214178,0.68772318214178,0.003855119746667,11.4034171294442,90.0007628887154,0.70360612539858,-0.070227447061155,0.070273853644857,0.703610767106522,-0.380420159999253,0.917025117224267,-0.062876406575532,0.10194112924683,-0.380420810430758,0.917025518410228,-0.06287055540216,0.101938701933934,0,0,44.725800999857,44.917901270459,-93.075866,-797563.702367047,-14845900.9853251,14725685.688447,-797753.153832313,-14845890.8062454,14725685.688447,0.000731162973142,0.68772318214178,0,6.33976842839706,-0.107578090337768,-31.4320861030861,-5.5197518009577E-05,-5.19518246303204E-05,-6.34890997701649E-05,-5.5197518009577E-05,-5.19518246303204E-05,-6.34890997701649E-05,0.783965270255255,-1.62448031584505,0.209618025916815,1.40222733441695E-05,3.30219201340392E-08,1.34701213064932E-08,101323.028692149,1.90598548865252E-10,14.9986374828747
0.2,-0.000577495929439,-1.22439336128346E-06,-0.000116715037063,0.110170656755663,8.27763672096414E-05,0.022221059075029,3.7843484786938E-06,-0.002969864951762,-0.002998657078806,6.962871305E-14,0.03992914991,7.65432719436E-06,1084.14128693,2.0428253890261E-08,-7.65429575022394E-06,-8.00329991746328E-09,-3.28015916596942E-06,0.001463809955527,7.44890192209177E-06,0.004184231684772,0.077920172860358,-0.001045668003441,6.33976884581169,-0.108458548240255,-31.4320837718041,2.0428253890261E-08,-7.65429575022394E-06,-8.00329991746328E-09,1082.58025776257,-58.1576781460664,5.44695753887083E-06,3.06970779118708E-07,5.36890559691626E-06,5.44695754010272E-06,7.65429496115909E-06,1.84426980417212E-08,-1.23824867003872E-08,0.00237686392,3.737199857E-07,0.0001572323861,518.6675475,2116.228,2116.175407,0,0,0,0,0,0,0,0,0.05273832175,0,-0.01032494063,0,0.06369013378,0,-0.01032494063,0,0.1133088485,0.1342341375,4.318855716,8.7401574936,0,1.8110236248,0.68772318214178,0.68772318214178,0.003804256952102,11.4034170196484,90.0007528269973,0.703606156075179,-0.070227752520353,0.070273546831229,0.703610736585545,-0.380419760173334,0.917025284984028,-0.062876370757011,0.101941134289407,-0.380420484939637,0.917025732015447,-0.062869850876875,0.101938429572093,0,0,44.725800999859,44.91790127046,-93.075866,-797542.050762726,-14845902.1484942,14725685.6884473,-797753.153832292,-14845890.806245,14725685.6884473,0.000814724455787,0.68772318214178,0,6.33976976181839,-0.108241800230812,-31.4320965817337,6.60493409960452E-08,-5.1833921747835E-05,-5.23364391633965E-05,6.60493409960452E-08,-5.1833921747835E-05,-5.23364391633965E-05,0.78396527025528,-1.62448031584505,0.209618025916815,2.33302910416129E-06,5.62133436311663E-09,-3.77418194627802E-09,101323.028692149,1.37532946218372E-11,14.9986374828747
0.22,0.00104930658082,1.6118003345725E-06,0.000211406130307,0.037043056535855,0.000193698471433,0.007476543169715,0.001630586827011,-0.00296702891626,-0.002670535754883,1.791208712E-13,0.06404260316,1.22768213209E-05,1084.14128689,-3.40329028576032E-08,1.22765899211362E-05,6.72563314499764E-08,-1.87151091020002E-06,0.00056635548058,-1.75438375265937E-06,0.004217203292258,0.078544205192481,-0.0004014569817,6.33977025108021,-0.109357728057413,-31.4320929695925,-3.40329028576032E-08,1.22765899211362E-05,6.72563314499764E-08,1082.58034179236,-58.1561132285516,-8.7739937169723E-06,-4.80798956382096E-07,-8.57357617110146E-06,-8.77399371895901E-06,-1.22765851633452E-05,-2.00635751465289E-08,7.34571885792684E-08,0.00237686392,3.737199857E-07,0.0001572323861,518.6675475,2116.228,2116.175407,0,0,0,0,0,0,0,0,0.05273832175,0,-0.01032494063,0,0.06369013378,0,-0.01032494063,0,0.1133088485,0.1342341375,4.318855716,8.7401574936,0,1.8110236248,0.68772318214178,0.68772318214178,0.003807401985168,11.4034170119769,90.0007534440968,0.703606154218281,-0.070227733540794,0.070273565716942,0.703610738450665,-0.380419784907602,0.917025274623145,-0.062876372883304,0.101941133878849,-0.380420584008468,0.917025767499774,-0.062869184297521,0.10193815175432,0,0,44.725800999858,44.91790127046,-93.075866,-797520.399156732,-14845903.3116322,14725685.6884473,-797753.153832295,-14845890.8062451,14725685.6884473,0.000898285938432,0.68772318214178,0,6.33976960707464,-0.109157406309431,-31.432090218003,2.84591088709933E-05,-5.17844235906179E-05,-4.66096417149429E-05,2.84591088709933E-05,-5.17844235906179E-05,-4.66096417149429E-05,0.783965270255276,-1.62448031584505,0.209618025916815,-3.74190315778762E-06,-6.11537770466202E-09,2.2389751078961E-08,101323.028692149,4.60777053178839E-12,14.9986374828747
0.24,0.001397702877923,3.90672538795135E-06,0.000281768177121,-0.008891780186829,8.48117781227703E-05,-0.001789579647672,0.001978982864128,-0.0029647353081,-0.002600172403998,3.342169871E-13,0.08748027508,1.67697697056E-05,1084.14128686,-5.75546221900537E-08,1.67696306270875E-05,3.67705646787993E-08,5.19376938145495E-07,-4.08547833545964E-05,-5.4415421734974E-06,0.004241465282611,0.078967884538451,3.28590521229827E-05,6.33977266231996,-0.109979301101163,-31.4320966022293,-5.75546221900537E-08,1.67696306270875E-05,3.67705646787993E-08,1082.58042640784,-58.1545375418176,-1.1948676520989E-05,-6.80450133333994E-07,-1.17469695236579E-05,-1.1948676523698E-05,-1.67696274819058E-05,-4.91485299385102E-08,4.85240331089524E-08,0.00237686392,3.737199857E-07,0.0001572323861,518.6675475,2116.228,2116.175407,0,0,0,0,0,0,0,0,0.05273832175,0,-0.01032494063,0,0.06369013378,0,-0.01032494063,0,0.1133088485,0.1342341375,4.318855716,8.7401574936,0,1.8110236248,0.68772318214178,0.68772318214178,0.003833583089391,11.4034170657087,90.0007586165159,0.703606138471052,-0.070227576287543,0.070273723633151,0.703610754121403,-0.380419990720302,0.917025188272294,-0.062876391257212,0.101941131283597,-0.38042086415551,0.917025726993789,-0.062868533966416,0.101937871750211,0,0,44.725800999858,44.917901270459,-93.075866,-797498.74754905,-14845904.4747387,14725685.688447,-797753.153832307,-14845890.8062453,14725685.688447,0.000981847421077,0.68772318214178,0,6.33977118172769,-0.109854558348798,-31.4320947200805,3.45397668195781E-05,-5.17443925764744E-05,-4.53815695692531E-05,3.45397668195781E-05,-5.17443925764744E-05,-4.53815695692531E-05,0.783965270255261,-1.62448031584505,0.209618025916815,-5.11138245648488E-06,-1.49804719252579E-08,1.47901252916087E-08,101323.028692149,1.5889014829856E-11,14.9986374828747
0.26,0.001053320026242,2.95533443687141E-06,0.000211569863899,-0.026479655362062,0.000175341070358,-0.005304485108141,0.001634599744771,-0.002965688059477,-0.002670369369857,1.921304332E-13,0.06632755082,1.27148405899E-05,1084.14128688,-3.44049893638202E-08,1.27147933556591E-05,-4.17698582866308E-09,7.64843872283596E-07,-0.000293013578873,-1.53662386404697E-05,0.004248775494808,0.079138226461891,0.00021890534363,6.33977293895389,-0.110246297476374,-31.4321064689251,-3.44049893638202E-08,1.27147933556591E-05,-4.17698582866308E-09,1082.58051138654,-58.1529558649167,-9.03613655477094E-06,-5.14478263929922E-07,-8.93032583429748E-06,-9.03613655682228E-06,-1.27147931501134E-05,-3.4551815750078E-08,3.54769990147194E-09,0.00237686392,3.737199857E-07,0.0001572323861,518.6675475,2116.228,2116.175407,0,0,0,0,0,0,0,0,0.05273832175,0,-0.01032494063,0,0.06369013378,0,-0.01032494063,0,0.1133088485,0.1342341375,4.318855716,8.7401574936,0,1.8110236248,0.68772317841649,0.68772317841649,0.003860629673328,11.4034171411693,90.000763961881,0.703606122178963,-0.070227413959631,0.070273886890983,0.703610770309929,-0.380420203324276,0.917025099049339,-0.062876410320459,0.101941128755657,-0.380421151093619,0.917025683615245,-0.062867884324768,0.101937591812996,0,0,44.725800999857,44.917901270459,-93.075866,-797477.095939673,-14845905.6378136,14725685.6884468,-797753.15383232,-14845890.8062455,14725685.6884468,0.001065408903721,0.68772317841649,0,6.33977298327612,-0.110213249305386,-31.4320909657511,2.85291474985042E-05,-5.17610212249534E-05,-4.66067377484058E-05,2.85291474985042E-05,-5.17610212249534E-05,-4.66067377484058E-05,0.783965270255247,-1.62448031584505,0.209618024781346,-3.87546895215457E-06,-1.05313934406238E-08,1.08133892996865E-09,101323.028692163,1.14394388830761E-11,14.9986374828821
0.28,0.000519249865802,1.75051041408949E-06,0.000104883433531,-0.024496426663799,-0.000228623930937,-0.004938402326552,0.001100529410031,-0.002966893775784,-0.002777054916252,4.835973149E-14,0.03327651374,6.37903197596E-06,1084.1412869,-2.54578408522198E-08,6.37869657103685E-06,6.0256976732046E-08,7.79372011727368E-08,-0.000302817402287,5.43046564264252E-06,0.00425324510541,0.079159497240148,0.000211430790548,6.33977228131668,-0.110265833068265,-31.4320856324581,-2.54578408522198E-08,6.37869657103685E-06,6.0256976732046E-08,1082.58059645997,-58.151372510043,-4.577356823636E-06,-2.51422811941665E-07,-4.43583588839078E-06,-4.5773568246764E-06,-6.37869230421755E-06,-1.3041602845419E-08,6.45241367472793E-08,0.00237686392,3.737199857E-07,0.0001572323861,518.6675475,2116.228,2116.175407,0,0,0,0,0,0,0,0,0.05273832175,0,-0.01032494063,0,0.06369013378,0,-0.01032494063,0,0.1133088485,0.1342341375,4.318855716,8.7401574936,0,1.8110236248,0.68772318214178,0.68772318214178,0.003878369158629,11.4034172073957,90.0007674594891,0.703606111534177,-0.0702273075886,0.070273994077426,0.703610780866261,-0.380420342765064,0.917025040513333,-0.062876422812412,0.101941127259579,-0.380421364868347,0.917025670923124,-0.062867228111615,0.101937312908013,0,0,44.725800999856,44.917901270458,-93.075866,-797455.444328595,-14845906.8008569,14725685.6884467,-797753.153832328,-14845890.8062457,14725685.6884467,0.001148970386366,0.68772318214178,0,6.33977150145008,-0.110273092058398,-31.432070823855,1.92078617200745E-05,-5.178206494436E-05,-4.8468751797286E-05,1.92078617200745E-05,-5.178206494436E-05,-4.8468751797286E-05,0.783965270255237,-1.62448031584505,0.209618025916815,-1.94422541432551E-06,-3.9750805472837E-09,1.96669568805707E-08,101323.028692149,3.58440442104312E-12,14.9986374828747
0.3,9.56169160334113E-05,4.19506433915898E-07,1.96689149005976E-05,-0.015488010947967,-0.000103673959809,-0.003098092313393,0.000676896388683,-0.002968225141509,-0.002862269076692,1.84365716E-15,0.006497345516,1.2455263531E-06,1084.1412869,-1.38830038190704E-08,1.2452913120626E-06,1.98168256758263E-08,1.68114296218624E-06,-0.000200630885219,2.66639818129996E-06,0.004250180605655,0.079085499286541,0.000140953971868,6.33977389131414,-0.11016759194451,-31.4320883814148,-1.38830038190704E-08,1.2452913120626E-06,1.98168256758263E-08,1082.58068146362,-58.1497900724586,-9.00416803695583E-07,-5.58507615407567E-08,-8.5875850407171E-07,-9.00416803900482E-07,-1.24528983551015E-06,-9.69085932007042E-09,2.22533019406389E-08,0.00237686392,3.737199857E-07,0.0001572323861,518.6675475,2116.228,2116.175407,0,0,0,0,0,0,0,0,0.05273832175,0,-0.01032494063,0,0.06369013378,0,-0.01032494063,0,0.1133088485,0.1342341375,4.318855716,8.7401574936,0,1.8110236248,0.68772318214178,0.68772318214178,0.003885560992991,11.4034172254896,90.0007688868235,0.703606107166578,-0.07022726441628,0.07027403747281,0.703610785208781,-0.380420399294479,0.917025016790937,-0.062876427922816,0.101941126551519,-0.380421495731506,0.917025693044063,-0.062866564516593,0.101937034791681,0,0,44.725800999856,44.917901270458,-93.075866,-797433.792715815,-14845907.9638685,14725685.6884466,-797753.15383233,-14845890.8062457,14725685.6884466,0.001232531869011,0.68772318214178,0,6.33977239265689,-0.110195020656646,-31.4320943182732,1.18140706773737E-05,-5.18053016598075E-05,-4.99560194662936E-05,1.18140706773737E-05,-5.18053016598075E-05,-4.99560194662936E-05,0.783965270255234,-1.62448031584505,0.209618025916815,-3.79564341863494E-07,-2.95377392075746E-09,6.78280643150673E-09,101323.028692149,3.09999480441763E-13,14.9986374828747
0.32,-0.000130700508494,2.46028191813755E-08,-2.59031797552036E-05,-0.005468446602341,-2.84596264175758E-05,-0.001102231512583,0.000450578964962,-0.00296862003888,-0.002907841177617,2.718511909E-15,0.007889718352,1.51244105802E-06,1084.14128691,5.41493289503731E-10,-1.51234124662423E-06,-1.73670528846788E-08,8.3184183998667E-07,-8.10382249148423E-05,2.39659948085845E-07,0.004244156684078,0.078999974891568,5.75356189213561E-05,6.33977304219019,-0.110047931184695,-31.4320908083578,5.41493289503731E-10,-1.51234124662423E-06,-1.73670528846788E-08,1082.58076637882,-58.1482093024172,1.08661769083945E-06,5.35503980122658E-08,1.05065327429767E-06,1.08661769108701E-06,1.51234010468709E-06,-2.90291948249695E-09,-1.72318111776845E-08,0.00237686392,3.737199857E-07,0.0001572323861,518.6675475,2116.228,2116.175407,0,0,0,0,0,0,0,0,0.05273832175,0,-0.01032494063,0,0.06369013378,0,-0.01032494063,0,0.1133088485,0.1342341375,4.318855716,8.7401574936,0,1.8110236248,0.68772317841649,0.68772317841649,0.003885436856577,11.4034172262612,90.0007688716972,0.703606107182954,-0.070227265173949,0.070274036724595,0.703610785191606,-0.380420398311424,0.91702501720061,-0.062876427914517,0.101941126540419,-0.380421569082001,0.917025739296532,-0.062865895802589,0.101936757372833,0,0,44.725800999856,44.917901270458,-93.075866,-797412.141101336,-14845909.1268485,14725685.6884466,-797753.15383233,-14845890.8062457,14725685.6884466,0.001316093351656,0.68772317841649,0,6.33977327536152,-0.110074599531049,-31.4320988235883,7.86408647881716E-06,-5.1812193919142E-05,-5.0751402674491E-05,7.86408647881716E-06,-5.1812193919142E-05,-5.0751402674491E-05,0.783965270255234,-1.62448031584505,0.209618024781346,4.60961263908626E-07,-8.84809858265071E-10,-5.25225604695823E-09,101323.028692163,6.21624846767702E-14,14.9986374828821
0.34,-0.000182814674908,-1.26176674377482E-06,-3.6451660673328E-05,0.001056983420957,-9.66959287239334E-05,0.000159528919903,0.000398464831266,-0.002969906240226,-0.002918389825215,5.560008217E-15,0.01128323405,2.1629702964E-06,1084.14128693,1.13877003700212E-08,-2.16217465394176E-06,5.75464093692583E-08,1.68831987257641E-07,-1.15615969988048E-06,-2.44847451103907E-06,0.004239751484478,0.078942138350655,2.53903429076052E-06,6.33977237542631,-0.1099662144431,-31.4320935036661,1.13877003700212E-08,-2.16217465394176E-06,5.75464093692583E-08,1082.580851235,-58.1466299358414,1.49817879746359E-06,1.06211524571409E-07,1.55647676051431E-06,1.49817879780531E-06,2.16217824626744E-06,2.25407601510399E-08,5.40152725249809E-08,0.00237686392,3.737199857E-07,0.0001572323861,518.6675475,2116.228,2116.175407,0,0,0,0,0,0,0,0,0.05273832175,0,-0.01032494063,0,0.06369013378,0,-0.01032494063,0,0.1133088485,0.1342341375,4.318855716,8.7401574936,0,1.8110236248,0.68772318214178,0.68772318214178,0.003882092523948,11.403417217357,90.0007682186409,0.703606109148761,-0.070227285253389,0.070274016535397,0.703610783238203,-0.380420372016962,0.917025028233718,-0.062876425622163,0.10194112682982,-0.380421617120889,0.917025796171921,-0.062865224804367,0.101936480254743,0,0,44.725800999856,44.917901270458,-93.075866,-797390.48948516,-14845910.2897969,14725685.6884467,-797753.153832329,-14845890.8062457,14725685.6884467,0.001399654834301,0.68772318214178,0,6.33977242228691,-0.109976264665583,-31.4320807962743,6.95452325900147E-06,-5.18346423674689E-05,-5.09355113067077E-05,6.95452325900147E-06,-5.18346423674689E-05,-5.09355113067077E-05,0.783965270255236,-1.62448031584505,0.209618025916815,6.59031929462316E-07,6.87042369403697E-09,1.64638550656142E-08,101323.028692149,2.67144778641089E-13,14.9986374828747
0.36,-0.000141594923757,-7.99977763102445E-07,-2.84344126604667E-05,0.003555276863721,-5.21225139102124E-05,0.000724198829636,0.000439684616755,-0.002969444272034,-0.002910372754881,3.511590025E-15,0.008967012671,1.71895592806E-06,1084.14128693,1.58748310317529E-08,-1.71887727849676E-06,4.28647017887742E-09,-2.14221503879053E-07,4.17749870960799E-05,-2.65962589816208E-06,0.004237594569084,0.078911908002385,-2.7872442862148E-05,6.33977198062138,-0.10992132870822,-31.4320937240336,1.58748310317529E-08,-1.71887727849676E-06,4.28647017887742E-09,1082.58093601135,-58.1450514237945,1.22056465120417E-06,8.13264463975232E-08,1.20764954517479E-06,1.2205646514829E-06,1.71887734526234E-06,1.6408975263386E-08,9.4908839868118E-10,0.00237686392,3.737199857E-07,0.0001572323861,518.6675475,2116.228,2116.175407,0,0,0,0,0,0,0,0,0.05273832175,0,-0.01032494063,0,0.06369013378,0,-0.01032494063,0,0.1133088485,0.1342341375,4.318855716,8.7401574936,0,1.8110236248,0.68772318214178,0.68772318214178,0.003878529616069,11.4034171934908,90.0007675188929,0.703606111276478,-0.070227306554403,0.070273994940858,0.703610781141326,-0.380420344014711,0.917025040000229,-0.062876423100093,0.101941127036539,-0.380421663451786,0.917025853780218,-0.062864553576371,0.101936203053977,0,0,44.725800999856,44.917901270458,-93.075866,-797368.837867288,-14845911.4527137,14725685.6884467,-797753.153832327,-14845890.8062457,14725685.6884467,0.001483216316945,0.68772318214178,0,6.33977212299029,-0.109934812436358,-31.4320846305627,7.67394423273872E-06,-5.1826579501478E-05,-5.07955870330053E-05,7.67394423273872E-06,-5.1826579501478E-05,-5.07955870330053E-05,0.783965270255238,-1.62448031584505,0.209618025916815,5.2391381483596E-07,5.00145566028004E-09,2.89282143918024E-10,101323.028692149,2.00009998903316E-13,14.9986374828747
0.38,-7.04338709943889E-05,-8.23570049718925E-07,-1.43065636048543E-05,0.002865786168664,0.000197451824513,0.000587716734611,0.000510845692649,-0.002969467743722,-0.002896245025387,9.123888538E-16,0.004570733137,8.76199143355E-07,1084.14128691,-6.83758539413573E-10,-8.76155630902066E-07,8.70527013387289E-09,-5.91857099664226E-08,3.74375384172981E-05,-2.75689447685949E-06,0.004237771006442,0.078914865377695,-2.47018856719822E-05,6.33977212734159,-0.109924350836275,-31.4320938275902,-6.83758539413573E-10,-8.76155630902066E-07,8.70527013387289E-09,1082.58102076343,-58.1434731487188,6.16434443027337E-07,3.44613847914913E-08,6.21728179532535E-07,6.16434443168269E-07,8.76156203929149E-07,1.05091912394734E-09,8.6105096376055E-09,0.00237686392,3.737199857E-07,0.0001572323861,518.6675475,2116.228,2116.175407,0,0,0,0,0,0,0,0,0.05273832175,0,-0.01032494063,0,0.06369013378,0,-0.01032494063,0,0.1133088485,0.1342341375,4.318855716,8.7401574936,0,1.8110236248,0.68772318214178,0.68772318214178,0.003876131994805,11.4034171765902,90.0007670466659,0.703606112717054,-0.070227320882716,0.070273980404703,0.703610779722563,-0.380420325172314,0.917025047918981,-0.062876421389374,0.101941127173421,-0.380421718942334,0.917025907540276,-0.062863883159728,0.101935925783236,0,0,44.725800999856,44.917901270458,-93.075866,-797347.18624772,-14845912.615599,14725685.6884467,-797753.153832326,-14845890.8062456,14725685.6884467,0.00156677779959,0.68772318214178,0,6.33977177490307,-0.109922372283624,-31.4320984326115,8.91593930636363E-06,-5.18269891597205E-05,-5.05490116375047E-05,8.91593930636363E-06,-5.18269891597205E-05,-5.05490116375047E-05,0.783965270255239,-1.62448031584505,0.209618025916815,2.67052410957605E-07,3.2032014897915E-10,2.62448333754216E-09,101323.028692149,6.55432173692008E-14,14.9986374828747
0.4,-1.42534124377369E-05,-5.24267670114473E-08,-2.97312540259431E-06,0.001937751662099,6.16525752394589E-06,0.00040011071194,0.000567026161102,-0.002968696549872,-0.002884911637278,4.787194923E-17,0.001046975299,2.00702782886E-07,1084.14128691,-7.11988079258071E-09,-1.95126806018867E-07,4.64375271574449E-08,1.26992631449542E-06,2.745041301494E-05,-8.26128914915746E-06,0.004238031508267,0.078917862784486,-1.36240152081163E-05,6.33977345428519,-0.109933786440194,-31.432099334357,-7.11988079258071E-09,-1.95126806018867E-07,4.64375271574449E-08,1082.58110553696,-58.1418947390412,1.05621224683363E-07,1.13556261092633E-08,1.70284508145309E-07,1.05621224707539E-07,1.95129916882202E-07,2.2021053919566E-09,4.69155980110146E-08,0.00237686392,3.737199857E-07,0.0001572323861,518.6675475,2116.228,2116.175407,0,0,0,0,0,0,0,0,0.05273832175,0,-0.01032494063,0,0.06369013378,0,-0.01032494063,0,0.1133088485,0.1342341375,4.318855716,8.7401574936,0,1.8110236248,0.68772317841649,0.68772317841649,0.003875126656811,11.4034171718486,90.0007668471117,0.703606113329182,-0.070227326904116,0.070273974324942,0.703610779116762,-0.380420317271408,0.91702505123712,-0.062876420667457,0.101941127254771,-0.380421785374169,0.917025956699246,-0.062863213731907,0.101935648456778,0,0,44.725800999856,44.917901270458,-93.075866,-797325.534626457,-14845913.7784527,14725685.6884467,-797753.153832325,-14845890.8062456,14725685.6884467,0.001650339282235,0.68772317841649,0,6.3397720118485,-0.109932384817709,-31.4320894847932,9.89647345617385E-06,-5.1813529287865E-05,-5.03512066996019E-05,9.89647345617385E-06,-5.1813529287865E-05,-5.03512066996019E-05,0.78396527025524,-1.62448031584505,0.209618024781346,5.94755986656952E-08,6.71201723468371E-10,1.42998742737573E-08,101323.028692163,6.04107429332271E-15,14.9986374828821
0.42,1.64012314592071E-05,6.11797733067801E-07,3.13520380561487E-06,0.000502094439395,-0.000155414744161,0.000150922688801,0.00059768080538,-0.002968032324261,-0.002878803309139,3.541546319E-17,0.0009005178861,1.72627229988E-07,1084.1412869,-8.56203171326652E-09,1.70937682865958E-07,-2.25202291897108E-08,-2.6290984095786E-07,1.27027767715532E-05,1.6303981145359E-05,0.004242751627373,0.078945351758476,-2.03031920743974E-05,6.33977192259226,-0.109948521948615,-31.4320747689044,-8.56203171326652E-09,1.70937682865958E-07,-2.25202291897108E-08,1082.58119029988,-58.1403161819637,-1.07113505295498E-07,-2.00584097765184E-08,-1.33882477253441E-07,-1.07113505320044E-07,-1.70939033702827E-07,-1.28456191892495E-08,-2.03714841044114E-08,0.00237686392,3.737199857E-07,0.0001572323861,518.6675475,2116.228,2116.175407,0,0,0,0,0,0,0,0,0.05273832175,0,-0.01032494063,0,0.06369013378,0,-0.01032494063,0,0.1133088485,0.1342341375,4.318855716,8.7401574936,0,1.8110236248,0.68772318214178,0.68772318214178,0.003875104552124,11.4034171738342,90.0007668415761,0.703606113348456,-0.070227327048634,0.070273974204795,0.703610779095159,-0.38042031709739,0.917025051308125,-0.062876420649343,0.101941127277124,-0.38042185953269,0.917026002610603,-0.0628625450079,0.101935371071165,0,0,44.725800999856,44.917901270458,-93.075866,-797303.883003499,-14845914.9412748,14725685.6884467,-797753.153832325,-14845890.8062456,14725685.6884467,0.00173390076488,0.68772318214178,0,6.33977212848983,-0.10994971563973,-31.4320992363964,1.0431497929848E-05,-5.18019363639679E-05,-5.02445962617783E-05,1.0431497929848E-05,-5.18019363639679E-05,-5.02445962617783E-05,0.78396527025524,-1.62448031584505,0.209618025916815,-5.21022174726218E-08,-3.91534472888325E-09,-6.20922835502461E-09,101323.028692149,1.12333426054713E-15,14.9986374828747
0.44,2.40187786287779E-05,-4.12347323014942E-08,4.75995311780708E-06,-0.000139092208786,6.33900891840889E-05,-1.38342061961111E-05,0.000605298348615,-0.002968685377362,-0.002877178539364,9.542609924E-17,0.001478187297,2.83365141797E-07,1084.1412869,-1.30357399875973E-08,2.81316461909888E-07,3.14153040308142E-08,1.93707610778258E-06,7.51605832488567E-07,-6.30850793636586E-06,0.004239915344393,0.078937843979149,4.09211663375542E-06,6.3397741238188,-0.10996069818155,-31.4320973803596,-1.30357399875973E-08,2.81316461909888E-07,3.14153040308142E-08,1082.58127509606,-58.1387373603497,-2.23366752335092E-07,-1.59071132878334E-08,-1.73637729999906E-07,-2.23366752386337E-07,-2.81314248473834E-07,-6.56710764744011E-09,3.33911710941794E-08,0.00237686392,3.737199857E-07,0.0001572323861,518.6675475,2116.228,2116.175407,0,0,0,0,0,0,0,0,0.05273832175,0,-0.01032494063,0,0.06369013378,0,-0.01032494063,0,0.1133088485,0.1342341375,4.318855716,8.7401574936,0,1.8110236248,0.68772317841649,0.68772317841649,0.003875514803294,11.4034171763549,90.0007669215408,0.703606113107385,-0.070227324594154,0.07027397669027,0.703610779333065,-0.380420320322305,0.917025049953449,-0.06287642093415,0.101941127253524,-0.380421937089941,0.917026047095796,-0.062861876586804,0.101935093639489,0,0,44.725800999856,44.917901270458,-93.075866,-797282.231378844,-14845916.1040653,14725685.6884467,-797753.153832325,-14845890.8062456,14725685.6884467,0.001817462247525,0.68772317841649,0,6.33977138403327,-0.109958919915599,-31.4320934116491,1.05644491402123E-05,-5.18133342907731E-05,-5.0216238679628E-05,1.05644491402123E-05,-5.18133342907731E-05,-5.0216238679628E-05,0.78396527025524,-1.62448031584505,0.209618024781346,-8.57445829348245E-08,-2.00165441093975E-09,1.01776289495059E-08,101323.028692163,4.61207885987878E-15,14.9986374828821
0.46,1.94270733050726E-05,6.62565471665079E-07,3.82796180978027E-06,-0.000437214828358,8.79280434582142E-05,-5.89295929240525E-05,0.000600706638736,-0.002967981601323,-0.0028781105067,6.317639861E-17,0.001202744315,2.30563348747E-07,1084.1412869,-1.07112897892293E-08,2.29090943946142E-07,-2.37079197398408E-08,5.4040274328076E-08,-3.16885421010327E-06,1.71195186870335E-06,0.004240002187512,0.078946461224415,1.08341797812328E-06,6.339772243153,-0.109964882192407,-31.432089358505,-1.07112897892293E-08,2.29090943946142E-07,-2.37079197398408E-08,1082.58135987707,-58.1371585003624,-1.47912881073054E-07,-2.4620603092169E-08,-1.75142979601467E-07,-1.47912881107028E-07,-2.29092343970885E-07,-1.51872754614869E-08,-2.11069276700012E-08,0.00237686392,3.737199857E-07,0.0001572323861,518.6675475,2116.228,2116.175407,0,0,0,0,0,0,0,0,0.05273832175,0,-0.01032494063,0,0.06369013378,0,-0.01032494063,0,0.1133088485,0.1342341375,4.318855716,8.7401574936,0,1.8110236248,0.68772318214178,0.68772318214178,0.003875995216455,11.4034171809917,90.0007670158129,0.703606112820166,-0.070227321730637,0.070273979610776,0.703610779614495,-0.380420324097372,0.917025048365661,-0.062876421278319,0.101941127237251,-0.380422015197142,0.917026091347392,-0.062861208225043,0.101934816215074,0,0,44.725800999856,44.917901270458,-93.075866,-797260.579752495,-14845917.2668243,14725685.6884467,-797753.153832326,-14845890.8062456,14725685.6884467,0.001901023730169,0.68772318214178,0,6.33977192969683,-0.109966766683637,-31.4320993450694,1.04843086845375E-05,-5.18010510816942E-05,-5.02325045781556E-05,1.04843086845375E-05,-5.18010510816942E-05,-5.02325045781556E-05,0.783965270255239,-1.62448031584505,0.209618025916815,-6.98273464423257E-08,-4.62908156066119E-09,-6.43339155381637E-09,101323.028692149,3.93966362933416E-15,14.9986374828747
0.48,8.59355636718248E-06,6.80969151242716E-07,1.80951705529327E-06,-0.000565429503076,-0.000232400187972,-0.000134194733664,0.000589873119347,-0.002967963214178,-0.002880128934917,1.504925134E-17,0.0005870205808,1.12530509802E-07,1084.14128691,-1.71231072718898E-09,1.12495072772458E-07,2.24549108786629E-09,3.99200793909129E-07,-8.56458474149391E-06,5.11022968955811E-06,0.00424122374254,0.07895251965596,2.62121662769621E-06,6.33977259711783,-0.109970458262362,-31.4320859578234,-1.71231072718898E-09,1.12495072772458E-07,2.24549108786629E-09,1082.58144468372,-58.1355795407793,-8.17181626977174E-08,-5.38347125269205E-09,-7.71769120835653E-08,-8.17181627165088E-08,-1.12494904091973E-07,-1.23454090223724E-09,2.54717516934328E-09,0.00237686392,3.737199857E-07,0.0001572323861,518.6675475,2116.228,2116.175407,0,0,0,0,0,0,0,0,0.05273832175,0,-0.01032494063,0,0.06369013378,0,-0.01032494063,0,0.1133088485,0.1342341375,4.318855716,8.7401574936,0,1.8110236248,0.68772318214178,0.68772318214178,0.003876323944164,11.4034171972838,90.0007670802077,0.703606112616296,-0.070227319851732,0.070273981689783,0.703610779798349,-0.380420326673392,0.917025047267532,-0.06287642155648,0.101941127331478,-0.380422092105095,0.917026136088158,-0.062860539797233,0.101934538901118,0,0,44.725800999856,44.917901270458,-93.075866,-797238.928124449,-14845918.4295516,14725685.6884467,-797753.153832326,-14845890.8062456,14725685.6884467,0.001984585212814,0.68772318214178,0,6.33977338256446,-0.109967127974015,-31.4320891186086,1.02952281016216E-05,-5.18007301654844E-05,-5.02677327962576E-05,1.02952281016216E-05,-5.18007301654844E-05,-5.02677327962576E-05,0.783965270255239,-1.62448031584505,0.209618025916815,-3.42884467672333E-08,-3.76288067001911E-10,7.76378991615832E-10,101323.028692149,1.09616122785645E-15,14.9986374828747
0.5,2.1957675620807E-06,-6.50059196366591E-07,4.66984532845658E-07,-9.6624462860363E-05,-2.65963489359708E-05,-2.44915871226296E-05,0.000583475329144,-0.002969294247644,-0.002881471462451,1.081052254E-18,0.0001573327825,3.01603364508E-08,1084.14128692,1.0687962803725E-08,2.81439030544496E-08,-1.82594271442136E-09,2.27977194860447E-07,-1.44209920355243E-06,-1.85566806988833E-06,0.004239038079988,0.078942783268675,2.34158055120726E-06,6.3397724220126,-0.10996339158995,-31.4320929243121,1.0687962803725E-08,2.81439030544496E-08,-1.82594271442136E-09,1082.58152948311,-58.1340006249492,-1.72505999418768E-08,8.88993209999602E-09,-2.30874815387819E-08,-1.72505999458483E-08,-2.81441619699389E-08,1.01159577737631E-08,-3.90121011573562E-09,0.00237686392,3.737199857E-07,0.0001572323861,518.6675475,2116.228,2116.175407,0,0,0,0,0,0,0,0,0.05273832175,0,-0.01032494063,0,0.06369013378,0,-0.01032494063,0,0.1133088485,0.1342341375,4.318855716,8.7401574936,0,1.8110236248,0.68772317841649,0.68772317841649,0.003876425680126,11.4034171902926,90.0007671008059,0.7036061125565,-0.07022731919676,0.070273982258903,0.70361077986677,-0.380420327476781,0.917025046938492,-0.062876421608011,0.101941127262076,-0.380422167240212,0.917026181597521,-0.062859871142748,0.101934261423508,0,0,44.725800999856,44.917901270458,-93.075866,-797217.276494707,-14845919.5922474,14725685.6884467,-797753.153832326,-14845890.8062456,14725685.6884467,0.002068146695459,0.68772317841649,0,6.33977280468634,-0.109964108711954,-31.4320910950546,1.01835655977255E-05,-5.18239610819077E-05,-5.02911643220174E-05,1.01835655977255E-05,-5.18239610819077E-05,-5.02911643220174E-05,0.783965270255239,-1.62448031584505,0.209618024781346,-8.57834056843739E-09,3.08334392944298E-09,-1.18908884327622E-09,101323.028692163,1.04978874292325E-16,14.9986374828821
0.52,-1.89887743094505E-06,-3.79510417058191E-07,-3.87013953644933E-07,-0.000165014666646,3.43562384802766E-05,-2.9302383124104E-05,0.00057938068339,-0.002969023700181,-0.002882325459735,1.352428855E-18,0.0001759758591,3.37341718281E-08,1084.14128691,-4.02902254936584E-09,-1.96313802086734E-08,2.71361426390082E-08,-2.29102869829302E-07,-2.62277186326154E-06,2.22589524989936E-06,0.004239481780999,0.078946502654736,3.01529788748756E-07,6.33977195946584,-0.10996458661337,-31.4320888438064,-4.02902254936584E-09,-1.96313802086734E-08,2.71361426390082E-08,1082.58161426023,-58.1324217068416,-5.3297518656093E-09,3.19948329279978E-09,3.31564684621978E-08,-5.32975186683773E-09,1.96331971588128E-08,1.41575734931056E-09,2.73957578766994E-08,0.00237686392,3.737199857E-07,0.0001572323861,518.6675475,2116.228,2116.175407,0,0,0,0,0,0,0,0,0.05273832175,0,-0.01032494063,0,0.06369013378,0,-0.01032494063,0,0.1133088485,0.1342341375,4.318855716,8.7401574936,0,1.8110236248,0.68772318214178,0.68772318214178,0.003876451840387,11.4034171803595,90.0007671059463,0.703606112547105,-0.07022731897829,0.070273982355387,0.703610779888429,-0.380420327687964,0.917025046861134,-0.062876421593028,0.101941127179636,-0.380422241782921,0.917026227358079,-0.062859202421711,0.101933983932816,0,0,44.725800999856,44.917901270458,-93.075866,-797195.62486327,-14845920.7549117,14725685.6884467,-797753.153832326,-14845890.8062456,14725685.6884467,0.002151708178104,0.68772318214178,0,6.33977145617263,-0.109964484854876,-31.4320907030469,1.0112100547616E-05,-5.18192391378947E-05,-5.03060693864421E-05,1.0112100547616E-05,-5.18192391378947E-05,-5.03060693864421E-05,0.783965270255239,-1.62448031584505,0.209618025916815,5.98419849400615E-09,4.31522840069859E-10,8.35022700081798E-09,101323.028692149,1.09390688487356E-16,14.9986374828747
0.54,-3.91199383698597E-06,-2.48686641613563E-09,-8.07277349236664E-07,0.000175739343173,0.000154851232355,4.66633203484144E-05,0.000577367567476,-0.002968646674142,-0.002882745725595,3.093403054E-18,0.0002661424405,5.10189003476E-08,1084.14128691,-1.08441358826705E-08,-4.35455294780428E-08,2.42717896354693E-08,2.57637602173532E-07,1.57022092860115E-06,-4.74955634412447E-06,0.004238043539783,0.078938691253327,2.20151423845072E-06,6.33977244626491,-0.109960366479083,-31.4320958193462,-1.08441358826705E-08,-4.35455294780428E-08,2.42717896354693E-08,1082.58169903435,-58.1308428286984,1.26895557545434E-08,-3.1897204633793E-09,4.93125648422138E-08,1.26895557574715E-08,4.35472495891176E-08,-5.83114902977898E-09,2.59338186060137E-08,0.00237686392,3.737199857E-07,0.0001572323861,518.6675475,2116.228,2116.175407,0,0,0,0,0,0,0,0,0.05273832175,0,-0.01032494063,0,0.06369013378,0,-0.01032494063,0,0.1133088485,0.1342341375,4.318855716,8.7401574936,0,1.8110236248,0.68772318214178,0.68772318214178,0.00387640236663,11.4034171804383,90.0007670963289,0.703606112575838,-0.070227319276645,0.070273982057983,0.703610779859717,-0.380420327298869,0.917025047024211,-0.062876421560193,0.101941127185436,-0.380422315725151,0.917026273358583,-0.062858533682784,0.101933706530321,0,0,44.725800999856,44.917901270458,-93.075866,-797173.973230137,-14845921.9175443,14725685.6884467,-797753.153832326,-14845890.8062456,14725685.6884467,0.002235269660749,0.68772318214178,0,6.33977150968369,-0.109963055159416,-31.4320928373694,1.00769650466948E-05,-5.18126587921532E-05,-5.0313404409434E-05,1.00769650466948E-05,-5.18126587921532E-05,-5.0313404409434E-05,0.783965270255239,-1.62448031584505,0.209618025916815,1.32732016747631E-08,-1.77733422427663E-09,7.90462791111298E-09,101323.028692149,3.31261989385229E-16,14.9986374828747
0.56,-4.13880727558937E-06,3.54350573553694E-07,-8.45950284890477E-07,0.000144862052,-0.000101736408817,4.87780645469269E-05,0.000577140755243,-0.00296828983352,-0.002882784401566,4.100876016E-18,0.0003064320593,5.8742328592E-08,1084.1412869,-1.32042121636056E-08,-4.86628204572875E-08,3.01370180126629E-08,3.14927125396368E-06,2.03228441447711E-06,-6.67461148858394E-06,0.004240267714323,0.078936496663126,3.60337090443696E-06,6.33977534415333,-0.109959869709801,-31.4320977432657,-1.32042121636056E-08,-4.86628204572875E-08,3.01370180126629E-08,1082.58178381183,-58.1292639585194,1.1951494313552E-08,-3.91168819334828E-09,5.73804988501982E-08,1.1951494316313E-08,4.86649527888166E-08,-6.9849875362614E-09,3.21495488054336E-08,0.00237686392,3.737199857E-07,0.0001572323861,518.6675475,2116.228,2116.175407,0,0,0,0,0,0,0,0,0.05273832175,0,-0.01032494063,0,0.06369013378,0,-0.01032494063,0,0.1133088485,0.1342341375,4.318855716,8.7401574936,0,1.8110236248,0.68772317841649,0.68772317841649,0.003876339103366,11.4034171918002,90.0007670838521,0.703606112606761,-0.070227319727198,0.070273981746941,0.703610779814984,-0.380420326795262,0.917025047222691,-0.062876421554143,0.101941127283581,-0.380422389552668,0.917026319394002,-0.062857864970607,0.101933429220119,0,0,44.725800999856,44.917901270458,-93.075866,-797152.321595309,-14845923.0801454,14725685.6884467,-797753.153832326,-14845890.8062456,14725685.6884467,0.002318831143393,0.68772317841649,0,6.33977189911449,-0.109963021642145,-31.4320907940531,1.00730064264342E-05,-5.18064307484003E-05,-5.03140794324665E-05,1.00730064264342E-05,-5.18064307484003E-05,-5.03140794324665E-05,0.783965270255239,-1.62448031584505,0.209618024781346,1.48330776100313E-08,-2.12902420105247E-09,9.79918247589618E-09,101323.028692163,2.4970174760247E-16,14.9986374828821
0.58,-1.58837640624036E-06,-6.4807765146864E-07,-3.32220565339599E-07,2.50725680002261E-05,-1.13254068517166E-05,7.44460414019858E-06,0.000579691186508,-0.002969292258652,-0.002882270674954,7.974398418E-19,0.0001351278433,2.59037001213E-08,1084.14128692,9.41516219342868E-09,-2.20272828329015E-08,-9.85673433988372E-09,4.01662516271181E-07,8.22732821134653E-07,-7.99678118514997E-07,0.004238908722531,0.078941906330405,2.81419286207729E-08,6.33977259427125,-0.109961045523328,-31.4320918689118,9.41516219342868E-09,-2.20272828329015E-08,-9.85673433988372E-09,1082.58186859931,-58.1276851467539,2.37598723559084E-08,7.66232789024765E-09,6.91077975365857E-09,2.37598723614037E-08,2.20265184705118E-08,7.28046919025808E-09,-1.1525143494523E-08,0.00237686392,3.737199857E-07,0.0001572323861,518.6675475,2116.228,2116.175407,0,0,0,0,0,0,0,0,0.05273832175,0,-0.01032494063,0,0.06369013378,0,-0.01032494063,0,0.1133088485,0.1342341375,4.318855716,8.7401574936,0,1.8110236248,0.68772317841649,0.68772317841649,0.003876277601009,11.403417187604,90.0007670718925,0.703606112645123,-0.070227320071725,0.070273981350866,0.703610779781889,-0.380420326313917,0.917025047429225,-0.062876421499033,0.101941127256444,-0.380422463402243,0.917026365436989,-0.062857196209337,0.101933151784582,0,0,44.725800999856,44.917901270458,-93.075866,-797130.669958784,-14845924.2427149,14725685.6884467,-797753.153832326,-14845890.8062456,14725685.6884467,0.002402392626038,0.68772317841649,0,6.33977232202068,-0.109961353407602,-31.4320903064188,1.01175198493619E-05,-5.1823926367457E-05,-5.03051132116238E-05,1.01175198493619E-05,-5.1823926367457E-05,-5.03051132116238E-05,0.783965270255239,-1.62448031584505,0.209618024781346,6.713682829812E-09,2.21908700919066E-09,-3.5128637371306E-09,101323.028692163,5.25698073907636E-17,14.9986374828821
0.6,-9.02875159400286E-07,-3.74126391575978E-07,-2.14390136277722E-07,-1.18534575028534E-05,-4.39999672990633E-07,1.136852754424E-05,0.000580376687279,-0.002969018305989,-0.002882152846067,3.52076898E-19,8.978724472E-05,1.72120105366E-08,1084.14128691,3.43764282929666E-09,-1.29113957174654E-08,-1.08504276006238E-08,8.04538559547785E-07,5.04573653636875E-07,-6.58352518733227E-07,0.004239230095766,0.078942155166258,2.12776851582497E-07,6.33977298885759,-0.109961348373123,-31.4320917293167,3.43764282929666E-09,-1.29113957174654E-08,-1.08504276006238E-08,1082.58195336653,-58.1261062903287,1.71365642517509E-08,1.27879197862595E-09,9.77836062329936E-10,1.71365642557189E-08,1.29106452298423E-08,1.22448077097753E-09,-1.1316766029676E-08,0.00237686392,3.737199857E-07,0.0001572323861,518.6675475,2116.228,2116.175407,0,0,0,0,0,0,0,0,0.05273832175,0,-0.01032494063,0,0.06369013378,0,-0.01032494063,0,0.1133088485,0.1342341375,4.318855716,8.7401574936,0,1.8110236248,0.68772317841649,0.68772317841649,0.003876249694931,11.4034171724728,90.0007670662814,0.703606112671795,-0.070227320146718,0.070273981090046,0.703610779773877,-0.38042032610292,0.917025047534707,-0.062876421428659,0.101941127138887,-0.380422537521961,0.917026411378433,-0.062856527432772,0.101932874258566,0,0,44.725800999856,44.917901270458,-93.075866,-797109.018320564,-14845925.4052528,14725685.6884467,-797753.153832326,-14845890.8062456,14725685.6884467,0.002485954108683,0.68772317841649,0,6.33977114944895,-0.109961702355181,-31.4320917158707,1.01294840948312E-05,-5.18191449914908E-05,-5.03030567095966E-05,1.01294840948312E-05,-5.18191449914908E-05,-5.03030567095966E-05,0.783965270255239,-1.62448031584505,0.209618024781346,3.93516466605593E-09,3.73221738993949E-10,-3.44935028584526E-09,101323.028692163,3.58047042067448E-17,14.9986374828821
0.62,-5.96080608166195E-07,-3.34560151651576E-07,-1.5678510090579E-07,-1.88203495815608E-05,0.000114012342972,5.38881611344015E-06,0.00058068348144,-0.002968978738867,-0.00288209524202,2.487463951E-19,7.546998747E-05,1.44674248939E-08,1084.14128691,2.27989645063647E-09,-9.52755473895314E-09,-1.06458515831885E-08,-5.85223305905094E-07,2.86811259256336E-07,-8.94719059390408E-08,0.0042379068376,0.078942971977423,-2.18243463287471E-07,6.33977159293417,-0.109961556511975,-31.432091161717,2.27989645063647E-09,-9.52755473895314E-09,-1.06458515831885E-08,1082.58203813662,-58.124527429861,1.44300613836792E-08,7.45320860363455E-11,-1.03641518902062E-09,1.44300613870243E-08,9.52683275419122E-09,1.30036892746413E-10,-1.08870993009785E-08,0.00237686392,3.737199857E-07,0.0001572323861,518.6675475,2116.228,2116.175407,0,0,0,0,0,0,0,0,0.05273832175,0,-0.01032494063,0,0.06369013378,0,-0.01032494063,0,0.1133088485,0.1342341375,4.318855716,8.7401574936,0,1.8110236248,0.68772317841649,0.68772317841649,0.003876232152355,11.4034171612295,90.0007670628097,0.703606112689299,-0.070227320183261,0.070273980915419,0.703610779770262,-0.380420325971205,0.91702504760258,-0.062876421379131,0.101941127050936,-0.380422611720759,0.917026457281781,-0.062855858677019,0.101932596762099,0,0,44.725800999856,44.917901270458,-93.075866,-797087.366680649,-14845926.5677591,14725685.6884467,-797753.153832325,-14845890.8062456,14725685.6884467,0.002569515591328,0.68772317841649,0,6.33977103562849,-0.109961992656388,-31.4320914318279,1.01348386630797E-05,-5.18184544149385E-05,-5.03020513293049E-05,1.01348386630797E-05,-5.18184544149385E-05,-5.03020513293049E-05,0.783965270255239,-1.62448031584505,0.209618024781346,2.90377862347749E-09,3.96352449091067E-11,-3.31838786693823E-09,101323.028692163,3.02938626489431E-17,14.9986374828821
0.64,-5.10744263873687E-07,-1.27654270911648E-08,-1.32569849848497E-07,-2.33591042701198E-05,-1.90807862613091E-05,8.15599435580795E-06,0.000580768817751,-0.002968656943488,-0.002882071027451,2.152028592E-19,7.019721765E-05,1.34566469161E-08,1084.14128691,-5.60672646378639E-10,-7.52852758523868E-09,-1.11394912274057E-08,9.44048414381579E-07,2.3434363927155E-07,-5.83428736320367E-07,0.004239163126366,0.078942381810156,3.72524043140698E-07,6.33977312040937,-0.109961601833221,-31.4320916560658,-5.60672646378639E-10,-7.52852758523868E-09,-1.11394912274057E-08,1082.58212290267,-58.1229485684504,1.29549975600237E-08,-2.87592556821685E-09,-2.23124102990342E-09,1.29549975630303E-08,7.52781079583638E-09,-2.75205800417401E-09,-1.0809236218592E-08,0.00237686392,3.737199857E-07,0.0001572323861,518.6675475,2116.228,2116.175407,0,0,0,0,0,0,0,0,0.05273832175,0,-0.01032494063,0,0.06369013378,0,-0.01032494063,0,0.1133088485,0.1342341375,4.318855716,8.7401574936,0,1.8110236248,0.68772317841649,0.68772317841649,0.003876219125717,11.4034171579459,90.0007670602233,0.703606112699257,-0.070227320241493,0.070273980816852,0.703610779764431,-0.380420325870631,0.917025047648484,-0.062876421359105,0.101941127026188,-0.380422685950498,0.917026503162674,-0.062855189950735,0.101932319328781,0,0,44.725800999856,44.917901270458,-93.075866,-797065.715039039,-14845927.7302339,14725685.6884467,-797753.153832325,-14845890.8062456,14725685.6884467,0.002653077073973,0.68772317841649,0,6.33977138377833,-0.109961933451356,-31.432091722433,1.01363280626653E-05,-5.18128380260507E-05,-5.03016287053511E-05,1.01363280626653E-05,-5.18128380260507E-05,-5.03016287053511E-05,0.783965270255239,-1.62448031584505,0.209618024781346,2.29447673057093E-09,-8.38827279672237E-10,-3.29465519942684E-09,101323.028692163,1.86304763370762E-17,14.9986374828821
0.66,-5.81963979080103E-07,-1.38818054565946E-07,-8.4914765051562E-08,2.12466431850771E-05,-7.90083934110306E-05,-3.75269436884919E-06,0.000580697597987,-0.002968782995558,-0.002882023372951,4.543379869E-19,0.0001019965318,1.95525030984E-08,1084.14128692,9.15011030732355E-09,-5.58669635867585E-09,-1.63512899360441E-08,1.06677925620282E-07,-1.07194427972912E-07,1.50246858256567E-07,0.004238419772529,0.078943291939805,-7.36966579428788E-09,6.33977228122285,-0.109961937289166,-31.4320909227813,9.15011030732355E-09,-5.58669635867585E-09,-1.63512899360441E-08,1082.5822076775,-58.1213697125277,1.65212714841467E-08,5.25917617290693E-09,-9.0381984877654E-09,1.65212714879854E-08,5.5855133400082E-09,5.73657312074863E-09,-1.78379972827818E-08,0.00237686392,3.737199857E-07,0.0001572323861,518.6675475,2116.228,2116.175407,0,0,0,0,0,0,0,0,0.05273832175,0,-0.01032494063,0,0.06369013378,0,-0.01032494063,0,0.1133088485,0.1342341375,4.318855716,8.7401574936,0,1.8110236248,0.68772317841649,0.68772317841649,0.003876208036903,11.4034171546268,90.0007670578863,0.703606112708892,-0.070227320287762,0.070273980729813,0.703610779758966,-0.380420325785408,0.917025047688016,-0.062876421339238,0.101941127001379,-0.380422760195385,0.917026549036707,-0.062854521224578,0.101932041895347,0,0,44.725800999856,44.917901270458,-93.075866,-797044.063395733,-14845928.8926771,14725685.6884467,-797753.153832325,-14845890.8062456,14725685.6884467,0.002736638556618,0.68772317841649,0,6.33977299546936,-0.109961530417617,-31.4320912650116,1.01350850432962E-05,-5.18150380497034E-05,-5.0300796977421E-05,1.01350850432962E-05,-5.18150380497034E-05,-5.0300796977421E-05,0.783965270255239,-1.62448031584505,0.209618024781346,1.7024644660345E-09,1.74850748720418E-09,-5.43702157179188E-09,101323.028692163,1.05041555223582E-17,14.9986374828821
0.68,8.03320844111437E-07,3.1515729872847E-07,1.49312328434542E-07,0.000265323027448,0.000166645508159,5.92359063921984E-05,0.000582082882404,-0.002968329019665,-0.002881789146496,5.682618282E-18,0.0003607199169,6.914918738E-08,1084.1412869,2.80188981975538E-09,1.74011246315764E-08,-6.68652405238356E-08,-6.9477748376746E-07,1.85695177654099E-06,9.59810197457052E-08,0.004237439344717,0.078942035372945,-1.47701924299581E-06,6.33977147423405,-0.109959967247871,-31.4320909781898,2.80188981975538E-09,1.74011246315764E-08,-6.68652405238356E-08,1082.582292423,-58.1197908992003,3.41478962917132E-08,-1.36357534152622E-08,-5.85627656752516E-08,3.41478962996565E-08,-1.74055079707375E-08,-1.04737362205348E-08,-6.6098103288155E-08,0.00237686392,3.737199857E-07,0.0001572323861,518.6675475,2116.228,2116.175407,0,0,0,0,0,0,0,0,0.05273832175,0,-0.01032494063,0,0.06369013378,0,-0.01032494063,0,0.1133088485,0.1342341375,4.318855716,8.7401574936,0,1.8110236248,0.68772317841649,0.68772317841649,0.003876197293567,11.4034171445202,90.000767055876,0.703606112720894,-0.070227320290433,0.070273980603019,0.703610779759457,-0.380420325706442,0.917025047732477,-0.062876421299155,0.101941126921342,-0.380422834446325,0.917026594915182,-0.062853852478171,0.101931764406632,0,0,44.725800999856,44.917901270458,-93.075866,-797022.411750732,-14845930.0550887,14725685.6884467,-797753.153832325,-14845890.8062456,14725685.6884467,0.002820200039262,0.68772317841649,0,6.339771616177,-0.109958697381261,-31.4321006676191,1.01592628174439E-05,-5.18071146756414E-05,-5.0296708954595E-05,1.01592628174439E-05,-5.18071146756414E-05,-5.0296708954595E-05,0.783965270255239,-1.62448031584505,0.209618024781346,-5.30519882948078E-09,-3.19239480001902E-09,-2.01467018822296E-08,101323.028692163,2.31908551723277E-17,14.9986374828821
0.7,1.17490408103616E-06,-3.8043770809782E-08,2.11213412815865E-07,-6.28615932469175E-05,-1.73868348300067E-05,-4.55180897587934E-06,0.000582454466141,-0.002968682222757,-0.002881727243228,1.477085835E-18,0.0001839072061,3.52545930027E-08,1084.14128691,1.19139905320723E-09,1.58038969807812E-08,-3.14913279539841E-08,9.11073095906794E-07,-9.39948901365617E-07,2.11725500402903E-06,0.004239464040508,0.07894508152518,-6.60545228084453E-07,6.33977308997137,-0.109962786202865,-31.4320889548484,1.19139905320723E-09,1.58038969807812E-08,-3.14913279539841E-08,1082.58237719189,-58.1182120105633,1.06586089198076E-08,-6.83379171932112E-09,-3.29025785411505E-08,1.06586089222898E-08,-1.58059597124172E-08,-5.05845332617599E-09,-3.11041800341095E-08,0.00237686392,3.737199857E-07,0.0001572323861,518.6675475,2116.228,2116.175407,0,0,0,0,0,0,0,0,0.05273832175,0,-0.01032494063,0,0.06369013378,0,-0.01032494063,0,0.1133088485,0.1342341375,4.318855716,8.7401574936,0,1.8110236248,0.68772317841649,0.68772317841649,0.003876237493949,11.4034171625765,90.0007670638997,0.703606112685246,-0.070227320159383,0.070273980955801,0.703610779773044,-0.380420326012575,0.917025047583952,-0.062876421387711,0.101941127060904,-0.380422909082168,0.917026640600186,-0.062853183860374,0.101931487137451,0,0,44.725800999856,44.917901270458,-93.075866,-797000.760104036,-14845931.2174687,14725685.6884467,-797753.153832325,-14845890.8062456,14725685.6884467,0.002903761521907,0.68772317841649,0,6.33977187073947,-0.109962606951057,-31.4320898667286,1.01657481771101E-05,-5.18132792325249E-05,-5.02956285387535E-05,1.01657481771101E-05,-5.18132792325249E-05,-5.02956285387535E-05,0.783965270255239,-1.62448031584505,0.209618024781346,-4.81765652034476E-09,-1.54181657381844E-09,-9.48055407439658E-09,101323.028692163,2.08764766766534E-17,14.9986374828821
0.72,1.96650271086863E-07,4.3819919648968E-07,4.07746240003153E-08,-2.3968082875626E-05,4.42526323049447E-05,-4.32456671471112E-06,0.000581476212028,-0.002968205980585,-0.00288189768126,2.546514944E-19,7.636054066E-05,1.46381419149E-08,1084.14128691,-2.40147473443788E-09,2.9938481625099E-09,-1.41260394662034E-08,-6.59001969976613E-07,-3.82531541082143E-07,4.66742668559002E-07,0.004237415343314,0.078943868344812,-1.36554106189291E-07,6.33977151818734,-0.10996223745607,-31.4320906056794,-2.40147473443788E-09,2.9938481625099E-09,-1.41260394662034E-08,1082.58246195274,-58.1166331258758,7.28248884363009E-09,-5.7624662793326E-09,-1.13152347464924E-08,7.28248884532797E-09,-2.9947349230628E-09,-5.14700943771639E-09,-1.33721746683045E-08,0.00237686392,3.737199857E-07,0.0001572323861,518.6675475,2116.228,2116.175407,0,0,0,0,0,0,0,0,0.05273832175,0,-0.01032494063,0,0.06369013378,0,-0.01032494063,0,0.1133088485,0.1342341375,4.318855716,8.7401574936,0,1.8110236248,0.68772317841649,0.68772317841649,0.003876253298591,11.4034171594771,90.0007670667901,0.703606112679132,-0.070227320045077,0.070273981032037,0.703610779783048,-0.380420326138734,0.917025047534627,-0.062876421386577,0.101941127035035,-0.380422983537831,0.9170266863839,-0.06285251515285,0.101931209702789,0,0,44.725800999856,44.917901270458,-93.075866,-796979.108455644,-14845932.3798172,14725685.6884467,-797753.153832325,-14845890.8062456,14725685.6884467,0.002987323004552,0.68772317841649,0,6.33977179078492,-0.109962197601211,-31.4320921434963,1.01486744219193E-05,-5.1804967238588E-05,-5.02986032435722E-05,1.01486744219193E-05,-5.1804967238588E-05,-5.02986032435722E-05,0.783965270255239,-1.62448031584505,0.209618024781346,-9.12795204549542E-10,-1.56880847661596E-09,-4.07583883889923E-09,101323.028692163,7.88934698256029E-18,14.9986374828821
0.74,-2.83844516963114E-07,2.9253161722357E-07,-1.60432658020633E-08,3.53502176808087E-05,4.15884012575085E-06,-9.84093729630634E-06,0.000580995717682,-0.002968351648207,-0.002881954499017,3.863554742E-19,9.405663021E-05,1.80304420219E-08,1084.14128691,5.15476654190079E-09,-5.68807065951863E-10,-1.72685170158313E-08,-1.28434471633888E-06,-4.81924676887235E-07,9.05841249844442E-07,0.004236799637127,0.078944365682008,-4.55807900104355E-07,6.33977089776589,-0.109962337313016,-31.4320901655902,5.15476654190079E-09,-5.68807065951863E-10,-1.72685170158313E-08,1082.58254671696,-58.1150542637581,1.30327389486281E-08,9.7363043886755E-10,-1.24216182024664E-08,1.30327389516701E-08,5.67616851399669E-10,1.63874954712224E-09,-1.79468423577388E-08,0.00237686392,3.737199857E-07,0.0001572323861,518.6675475,2116.228,2116.175407,0,0,0,0,0,0,0,0,0.05273832175,0,-0.01032494063,0,0.06369013378,0,-0.01032494063,0,0.1133088485,0.1342341375,4.318855716,8.7401574936,0,1.8110236248,0.68772318214178,0.68772318214178,0.003876254142478,11.4034171684489,90.0007670669701,0.703606112673094,-0.07022732009509,0.070273981092191,0.703610779778182,-0.380420326140471,0.91702504752391,-0.062876421417079,0.101941127106673,-0.38042305786887,0.917026732205734,-0.062851846476929,0.101930932365584,0,0,44.725800999856,44.917901270458,-93.075866,-796957.456805557,-14845933.542134,14725685.6884467,-797753.153832326,-14845890.8062456,14725685.6884467,0.003070884487197,0.68772318214178,0,6.3397734456649,-0.109961580767752,-31.4320916389659,1.01402882135427E-05,-5.18075096182076E-05,-5.02995949005111E-05,1.01402882135427E-05,-5.18075096182076E-05,-5.02995949005111E-05,0.783965270255239,-1.62448031584505,0.209618025916815,1.73009616306619E-10,4.99490861962858E-10,-5.47019755063877E-09,101323.028692149,8.26655844871354E-18,14.9986374828747
0.76,-3.8045405703497E-07,1.09172842871354E-06,-6.84986657030636E-08,6.98741915757305E-06,1.48207252293746E-05,-5.61804057500459E-07,0.000580899108777,-0.002967552451132,-0.00288200695456,2.972554484E-19,8.25013E-05,1.58153115091E-08,1084.1412869,-1.02479394855035E-08,-3.57377504275439E-09,-1.15035623341163E-08,-3.75476705096607E-07,-1.43298687582671E-07,1.68810744746559E-07,0.004237381500088,0.078943453867296,-6.15717201529753E-08,6.33977181300286,-0.109961995814624,-31.432090901352,-1.02479394855035E-08,-3.57377504275439E-09,-1.15035623341163E-08,1082.58263145865,-58.1134753913809,9.04840511697975E-09,-1.25200634024687E-08,-3.39093724315522E-09,9.04840511909415E-09,3.57316172098198E-09,-1.23200748951871E-08,-9.25053231337484E-09,0.00237686392,3.737199857E-07,0.0001572323861,518.6675475,2116.228,2116.175407,0,0,0,0,0,0,0,0,0.05273832175,0,-0.01032494063,0,0.06369013378,0,-0.01032494063,0,0.1133088485,0.1342341375,4.318855716,8.7401574936,0,1.8110236248,0.68772318214178,0.68772318214178,0.0038762489089,11.4034171800571,90.000767065958,0.703606112669034,-0.070227320197877,0.070273981131947,0.703610779768106,-0.380420326092971,0.917025047530882,-0.062876421452178,0.101941127200083,-0.380423132150473,0.91702677804477,-0.062851177805571,0.101930655050097,0,0,44.725800999856,44.917901270458,-93.075866,-796935.805153776,-14845934.7044193,14725685.6884467,-797753.153832326,-14845890.8062456,14725685.6884467,0.003154445969842,0.68772318214178,0,6.33977203651281,-0.109961772523329,-31.4320917340947,1.01386020700644E-05,-5.17935609978882E-05,-5.03005104224535E-05,1.01386020700644E-05,-5.17935609978882E-05,-5.03005104224535E-05,0.783965270255239,-1.62448031584505,0.209618025916815,1.08909969255531E-09,-3.75515882805304E-09,-2.81956224911665E-09,101323.028692149,1.2017233572741E-17,14.9986374828747
0.78,-4.6625889256707E-07,1.12743187083021E-06,-8.37807796663105E-08,1.61481547069851E-05,4.00522357322974E-06,-1.74345324380899E-07,0.000580813304952,-0.002967516747303,-0.002882022236871,3.103008361E-19,8.429219303E-05,1.61586216282E-08,1084.1412869,-9.4491500156455E-09,-4.21080231657683E-09,-1.24130480042915E-08,-4.79017283068023E-07,-1.54174297856136E-07,2.95097783219932E-07,0.004237195853848,0.078943574142618,-1.55353327938035E-07,6.33977171963865,-0.109962002459846,-31.4320907730315,-9.4491500156455E-09,-4.21080231657683E-09,-1.24130480042915E-08,1082.58271621211,-58.1118965282393,1.02395062949461E-08,-1.19336902522027E-08,-3.7202957861672E-09,1.02395062973416E-08,4.21011938953297E-09,-1.17168737083077E-08,-1.03000397190903E-08,0.00237686392,3.737199857E-07,0.0001572323861,518.6675475,2116.228,2116.175407,0,0,0,0,0,0,0,0,0.05273832175,0,-0.01032494063,0,0.06369013378,0,-0.01032494063,0,0.1133088485,0.1342341375,4.318855716,8.7401574936,0,1.8110236248,0.68772318214178,0.68772318214178,0.003876241197289,11.4034171986023,90.0007670644395,0.703606112662315,-0.070227320358162,0.070273981199392,0.703610779752186,-0.380420326022195,0.917025047539849,-0.062876421508444,0.101941127349351,-0.380423206408598,0.917026823885315,-0.062850509155347,0.101930377790415,0,0,44.725800999856,44.917901270458,-93.075866,-796914.153500299,-14845935.866673,14725685.6884467,-797753.153832326,-14845890.8062456,14725685.6884467,0.003238007452486,0.68772318214178,0,6.33977243036057,-0.109961568239923,-31.432092338052,1.01371045107942E-05,-5.17929378485061E-05,-5.03007771490846E-05,1.01371045107942E-05,-5.17929378485061E-05,-5.03007771490846E-05,0.783965270255239,-1.62448031584505,0.209618025916815,1.28324438992965E-09,-3.57130310629217E-09,-3.13945210637872E-09,101323.028692149,1.45827032365865E-17,14.9986374828747
0.8,-5.74452671154996E-07,2.58180182910524E-07,-5.01475851083288E-08,4.27290613705451E-05,-0.000227762407649,-8.90763048341235E-06,0.000580705112498,-0.002968385998537,-0.002881988603877,1.220906096E-17,0.0005287337234,1.01357051835E-07,1084.14128691,-1.60339826737943E-08,-3.76891950290115E-09,1.00009792530803E-07,1.45652541610879E-06,-2.96337599320351E-07,-6.31795684323714E-07,0.004238748501341,0.078942672160316,8.54298153454836E-07,6.33977366865605,-0.109962139667679,-31.4320916972272,-1.60339826737943E-08,-3.76891950290115E-09,1.00009792530803E-07,1082.58280098267,-58.1103175866867,-6.85372502986013E-08,8.05105805878901E-09,7.42366334265221E-08,-6.85372503146533E-08,3.77563115775198E-09,4.05605475822817E-09,1.01205459280723E-07,0.00237686392,3.737199857E-07,0.0001572323861,518.6675475,2116.228,2116.175407,0,0,0,0,0,0,0,0,0.05273832175,0,-0.01032494063,0,0.06369013378,0,-0.01032494063,0,0.1133088485,0.1342341375,4.318855716,8.7401574936,0,1.8110236248,0.68772318214178,0.68772318214178,0.003876232161224,11.4034172231802,90.0007670626892,0.70360611265251,-0.07022732056348,0.070273981295887,0.703610779731956,-0.380420325937673,0.91702504754782,-0.062876421584054,0.101941127546949,-0.380423280652777,0.917026869724376,-0.062849840524433,0.10193010057901,0,0,44.725800999856,44.917901270458,-93.075866,-796892.501845127,-14845937.0288952,14725685.6884467,-797753.153832326,-14845890.8062456,14725685.6884467,0.003321568935131,0.68772318214178,0,6.33977135296024,-0.109961449943563,-31.4320736009106,1.01352161962535E-05,-5.18081091445631E-05,-5.03001901426154E-05,1.01352161962535E-05,-5.18081091445631E-05,-5.03001901426154E-05,0.783965270255239,-1.62448031584505,0.209618025916815,1.1508123768828E-09,1.23628549030795E-09,3.08474239887644E-08,101323.028692149,1.95508018827287E-17,14.9986374828747
0.82,-4.15449902918881E-07,-5.31848531919166E-07,-9.99940746094729E-08,-8.74471274251588E-06,0.00010746757321,-1.52925872676501E-06,0.000580864115009,-0.002969176026772,-0.002882038450914,3.827571031E-19,9.361760137E-05,1.79462811907E-08,1084.14128691,6.94815611308901E-09,-6.34508463440141E-09,-1.52817550099626E-08,-8.88984482672268E-07,2.95732906774315E-08,5.07585507487027E-07,0.004236610332032,0.078943681964726,-4.89505604897578E-07,6.33977131936736,-0.109961808519656,-31.4320905586308,6.94815611308901E-09,-6.34508463440141E-09,-1.52817550099626E-08,1082.58288572629,-58.1087388045535,1.60160387394434E-08,3.40016399444739E-09,-7.34808794427693E-09,1.60160387431987E-08,6.34400003312648E-09,3.7895508072044E-09,-1.63542647926745E-08,0.00237686392,3.737199857E-07,0.0001572323861,518.6675475,2116.228,2116.175407,0,0,0,0,0,0,0,0,0.05273832175,0,-0.01032494063,0,0.06369013378,0,-0.01032494063,0,0.1133088485,0.1342341375,4.318855716,8.7401574936,0,1.8110236248,0.68772318214178,0.68772318214178,0.003876222614285,11.4034172162651,90.0007670608905,0.703606112661989,-0.070227320578531,0.070273981195905,0.703610779731055,-0.380420325866379,0.917025047585496,-0.062876421555198,0.101941127492399,-0.380423354909975,0.917026915592652,-0.062849171789018,0.101929823115402,0,0,44.725800999856,44.917901270458,-93.075866,-796870.85018826,-14845938.1910857,14725685.6884467,-797753.153832326,-14845890.8062456,14725685.6884467,0.003405130417776,0.68772318214178,0,6.3397725362415,-0.109962074785298,-31.4320939092285,1.01379913135984E-05,-5.18218977384483E-05,-5.03010601375213E-05,1.01379913135984E-05,-5.18218977384483E-05,-5.03010601375213E-05,0.783965270255239,-1.62448031584505,0.209618025916815,1.93365121009695E-09,1.1550550860359E-09,-4.9847799088072E-09,101323.028692149,7.9951320837606E-18,14.9986374828747
0.84,-2.18668377095401E-07,2.48919203594829E-07,-1.58547937846166E-07,-0.00011096123563,2.24770938503259E-05,2.26055044927043E-05,0.000581060896487,-0.002968395258529,-0.00288209700531,2.978214855E-18,0.0002611402965,5.00600007082E-08,1084.14128689,-7.0906434221089E-09,-9.0546082012641E-09,-4.87210479883521E-08,1.61576242193204E-06,7.60521908824141E-07,4.37711265505779E-06,0.004239808965829,0.078945341820518,-3.32949402341576E-06,6.33977382258588,-0.109961072028586,-31.4320866894379,-7.0906434221089E-09,-9.0546082012641E-09,-4.87210479883521E-08,1082.58297045088,-58.1071599590037,3.90537172088525E-08,-1.79852272677177E-08,-2.56386903540904E-08,3.905371721802E-08,9.05153409033949E-09,-1.65835908929149E-08,-4.6357932602709E-08,0.00237686392,3.737199857E-07,0.0001572323861,518.6675475,2116.228,2116.175407,0,0,0,0,0,0,0,0,0.05273832175,0,-0.01032494063,0,0.06369013378,0,-0.01032494063,0,0.1133088485,0.1342341375,4.318855716,8.7401574936,0,1.8110236248,0.68772317841649,0.68772317841649,0.003876212514623,11.4034172134676,90.0007670590656,0.703606112668767,-0.070227320622243,0.070273981117828,0.703610779727807,-0.380420325788422,0.917025047621341,-0.062876421540289,0.101941127470585,-0.380423429160307,0.91702696145861,-0.062848503067518,0.101929545684476,0,0,44.725800999856,44.917901270458,-93.075866,-796849.198529698,-14845939.3532447,14725685.6884467,-797753.153832326,-14845890.8062456,14725685.6884467,0.003488691900421,0.68772317841649,0,6.33977234525028,-0.109962882287232,-31.4321080624437,1.01414257982888E-05,-5.18082707619111E-05,-5.03020821045341E-05,1.01414257982888E-05,-5.18082707619111E-05,-5.03020821045341E-05,0.783965270255239,-1.62448031584505,0.209618024781346,2.75890759073548E-09,-5.05467850416046E-09,-1.41298978573057E-08,101323.028692163,6.00390186480198E-16,14.9986374828821
0.86,-2.86728515432327E-07,-3.2625917667445E-07,-1.01649019446125E-07,-6.65700987864334E-05,1.51733728362802E-05,1.08753252125736E-06,0.000580992836759,-0.0029689704364,-0.002882040106834,4.145493781E-19,9.742805084E-05,1.86767356849E-08,1084.14128691,1.2948956465404E-09,-8.68655923935888E-09,-1.6482942385628E-08,1.00532046297772E-06,4.39304382524042E-07,6.83769353583415E-08,0.004238101481279,0.078942740334918,-2.14116206584403E-07,6.33977321547981,-0.109961387698166,-31.432090997523,1.2948956465404E-09,-8.68655923935888E-09,-1.6482942385628E-08,1082.58305521025,-58.1055810748338,1.77217596152376E-08,-2.28453481543858E-09,-5.43512581210405E-09,1.77217596194023E-08,8.68547074530399E-09,-1.98960451988992E-09,-1.64141563204184E-08,0.00237686392,3.737199857E-07,0.0001572323861,518.6675475,2116.228,2116.175407,0,0,0,0,0,0,0,0,0.05273832175,0,-0.01032494063,0,0.06369013378,0,-0.01032494063,0,0.1133088485,0.1342341375,4.318855716,8.7401574936,0,1.8110236248,0.68772317841649,0.68772317841649,0.003876202398525,11.4034172195479,90.0007670570113,0.703606112671503,-0.070227320720427,0.070273981094302,0.703610779717717,-0.380420325705624,0.917025047649316,-0.062876421553024,0.101941127520581,-0.380423503405599,0.917027007316211,-0.062847834373628,0.101929268325306,0,0,44.725800999856,44.917901270458,-93.075866,-796827.546869441,-14845940.5153721,14725685.6884467,-797753.153832326,-14845890.8062456,14725685.6884467,0.003572253383066,0.68772317841649,0,6.33977163747107,-0.1099627974699,-31.4320904562505,1.01402379319408E-05,-5.18183095095595E-05,-5.03010890387787E-05,1.01402379319408E-05,-5.18183095095595E-05,-5.03010890387787E-05,0.783965270255239,-1.62448031584505,0.209618024781346,2.64733148316866E-09,-6.06431457662448E-10,-5.00303484646353E-09,101323.028692163,4.7859054960924E-18,14.9986374828821
0.88,-4.39903884570253E-07,-7.5772783994178E-07,-9.77288906889696E-08,-1.54372113970776E-05,-9.21584662946887E-06,-5.69821922965361E-07,0.000580839661053,-0.002969401904582,-0.00288203618727,5.051465776E-19,0.000107548557,2.06168136828E-08,1084.14128692,1.15456327218834E-08,-6.67023616110729E-09,-1.57244815825361E-08,3.00317434306009E-07,9.54873964204017E-08,-3.29500174297242E-08,0.004237290743634,0.078943054633912,1.99043947990418E-09,6.3397725056884,-0.10996172625932,-31.4320910998374,1.15456327218834E-08,-6.67023616110729E-09,-1.57244815825361E-08,1082.58313996167,-58.1040022136187,1.7192080375567E-08,7.77405789988587E-09,-8.30959701328988E-09,1.71920803796118E-08,6.66906245330158E-09,8.20873636167041E-09,-1.76972670170182E-08,0.00237686392,3.737199857E-07,0.0001572323861,518.6675475,2116.228,2116.175407,0,0,0,0,0,0,0,0,0.05273832175,0,-0.01032494063,0,0.06369013378,0,-0.01032494063,0,0.1133088485,0.1342341375,4.318855716,8.7401574936,0,1.8110236248,0.68772318214178,0.68772318214178,0.003876192815521,11.4034172108128,90.0007670549861,0.703606112683466,-0.070227320724385,0.070273980983063,0.703610779716563,-0.380420325635201,0.917025047688704,-0.062876421516341,0.101941127452208,-0.38042357766306,0.917027053184735,-0.062847165630286,0.101928990847712,0,0,44.725800999856,44.917901270458,-93.075866,-796805.89520749,-14845941.677468,14725685.6884467,-797753.153832326,-14845890.8062456,14725685.6884467,0.00365581486571,0.68772318214178,0,6.33977230192003,-0.109962032402074,-31.4320907449991,1.01375645115388E-05,-5.18258400499472E-05,-5.03010206294827E-05,1.01375645115388E-05,-5.18258400499472E-05,-5.03010206294827E-05,0.783965270255239,-1.62448031584505,0.209618025916815,2.03273023576632E-09,2.50202284303714E-09,-5.39412698678716E-09,101323.028692149,2.19102869784788E-17,14.9986374828747
0.9,4.38194992851367E-07,-2.50611477310453E-07,2.42366000768814E-07,0.000176729681792,6.11290356313977E-05,-2.92747623929066E-05,0.000581717759174,-0.002968894787752,-0.002881696093013,8.302643582E-18,0.0004360176577,8.35835929824E-08,1084.14128693,4.94005766864741E-10,2.2179426072002E-08,8.05856440891512E-08,-1.0285152444143E-06,-2.50177360090753E-06,-1.21752812285144E-05,0.004233132300996,0.078936825657352,1.00380490596075E-05,6.3397711673608,-0.1099643184172,-31.432103244105,4.94005766864741E-10,2.2179426072002E-08,8.05856440891512E-08,1082.58322471152,-58.1024233015833,-7.12765082748821E-08,1.85642288061949E-08,3.95126029523322E-08,-7.12765082916704E-08,-2.21741940213849E-08,1.64173090274421E-08,7.88986318087292E-08,0.00237686392,3.737199857E-07,0.0001572323861,518.6675475,2116.228,2116.175407,0,0,0,0,0,0,0,0,0.05273832175,0,-0.01032494063,0,0.06369013378,0,-0.01032494063,0,0.1133088485,0.1342341375,4.318855716,8.7401574936,0,1.8110236248,0.68772318214178,0.68772318214178,0.003876183511149,11.4034171935108,90.0007670527379,0.70360611270222,-0.070227320673894,0.070273980821069,0.703610779719123,-0.380420325571868,0.917025047734761,-0.062876421449187,0.101941127316178,-0.380423651927406,0.917027099059441,-0.062846496856439,0.101928713302408,0,0,44.725800999856,44.917901270458,-93.075866,-796784.243543843,-14845942.8395322,14725685.6884467,-797753.153832326,-14845890.8062456,14725685.6884467,0.003739376348355,0.68772318214178,0,6.33977186705748,-0.109957192112244,-31.4320789271983,1.01528902149065E-05,-5.18169891915678E-05,-5.02950848649405E-05,1.01528902149065E-05,-5.18169891915678E-05,-5.02950848649405E-05,0.783965270255239,-1.62448031584505,0.209618025916815,-6.75869433771812E-09,5.00399579156435E-09,2.40483029753007E-08,101323.028692149,1.49199985669274E-16,14.9986374828747
0.92,2.56493335283404E-07,-2.58424797054769E-07,8.76581203258261E-08,7.94921179122804E-05,-5.23290141679028E-05,4.25181327647285E-06,0.00058153605738,-0.002968902602257,-0.002881850799702,1.054396885E-18,0.000155381009,2.97861859061E-08,1084.14128691,8.73494268454785E-09,1.44355044848183E-08,-2.45465650835175E-08,2.74414668321662E-07,-1.46168406174596E-06,1.20196737517331E-06,0.004237383950452,0.078945011933708,2.52997377395148E-07,6.33977247152506,-0.109963291245553,-31.4320898665679,8.73494268454785E-09,1.44355044848183E-08,-2.45465650835175E-08,1082.58330943189,-58.1008445054005,7.89006039829448E-09,2.17564677497897E-09,-2.86396644364864E-08,7.89006040015498E-09,-1.44372147519654E-08,3.70926549027795E-09,-2.57880796254855E-08,0.00237686392,3.737199857E-07,0.0001572323861,518.6675475,2116.228,2116.175407,0,0,0,0,0,0,0,0,0.05273832175,0,-0.01032494063,0,0.06369013378,0,-0.01032494063,0,0.1133088485,0.1342341375,4.318855716,8.7401574936,0,1.8110236248,0.68772317841649,0.68772317841649,0.003876207060445,11.4034171957592,90.0007670576381,0.703606112685233,-0.070227320546105,0.070273980976464,0.703610779733439,-0.380420325755643,0.917025047655206,-0.062876421475034,0.101941127330598,-0.380423726438663,0.91702714480805,-0.062845828175564,0.101928435907491,0,0,44.725800999856,44.917901270458,-93.075866,-796762.591878502,-14845944.0015649,14725685.6884467,-797753.153832326,-14845890.8062456,14725685.6884467,0.003822937831,0.68772317841649,0,6.3397729639065,-0.109960609871568,-31.4320923446315,1.01497189203523E-05,-5.18171255804037E-05,-5.02977850060227E-05,1.01497189203523E-05,-5.18171255804037E-05,-5.02977850060227E-05,0.783965270255239,-1.62448031584505,0.209618024781346,-4.40046305639904E-09,1.13058412143672E-09,-7.86020666984799E-09,101323.028692163,1.33987590040951E-18,14.9986374828821
0.94,3.18292068228183E-06,1.19420006252726E-07,6.34731062526311E-07,0.000117179355702,2.29278735054854E-05,2.56561753687467E-05,0.00058446248428,-0.002968524758784,-0.00288130372548,8.172936338E-18,0.0004325984292,8.29281346595E-08,1084.14128691,1.05703222354464E-08,4.07114264666531E-08,-7.14697387779792E-08,1.72095475776018E-07,1.1083043822413E-06,1.17450474402717E-07,0.004236817925731,0.078942489222841,-8.39209465447466E-07,6.33977236734228,-0.10996073576109,-31.4320909514151,1.05703222354464E-08,4.07114264666531E-08,-7.14697387779792E-08,1082.58339415613,-58.0992656918957,2.18421116665248E-08,-8.05149907946652E-09,-7.95937876974207E-08,2.18421116716811E-08,-4.071621106797E-08,-3.76903985172726E-09,-7.21461018669168E-08,0.00237686392,3.737199857E-07,0.0001572323861,518.6675475,2116.228,2116.175407,0,0,0,0,0,0,0,0,0.05273832175,0,-0.01032494063,0,0.06369013378,0,-0.01032494063,0,0.1133088485,0.1342341375,4.318855716,8.7401574936,0,1.8110236248,0.68772317841649,0.68772317841649,0.003876233499873,11.4034171923672,90.0007670630822,0.703606112670136,-0.07022732036627,0.070273981114638,0.70361077975278,-0.380420325965255,0.917025047571139,-0.062876421483949,0.101941127299637,-0.380423800975553,0.917027190551657,-0.062845159477725,0.101928158467137,0,0,44.725800999856,44.917901270458,-93.075866,-796740.940211466,-14845945.163566,14725685.6884467,-797753.153832326,-14845890.8062456,14725685.6884467,0.003906499313645,0.68772317841649,0,6.33977204997093,-0.109959983160554,-31.4320935440559,1.02007947050705E-05,-5.18105309677425E-05,-5.02882367596049E-05,1.02007947050705E-05,-5.18105309677425E-05,-5.02882367596049E-05,0.783965270255239,-1.62448031584505,0.209618024781346,-1.24103011335172E-08,-1.14880334680647E-09,-2.19901318490362E-08,101323.028692163,2.05497296709468E-16,14.9986374828821
0.96,4.64041076938985E-06,2.0250098719667E-07,9.30738526248383E-07,3.72420864501559E-05,5.0564773876602E-06,8.60567170112871E-06,0.000585919973756,-0.002968441681843,-0.002881007713978,9.808669862E-18,0.0004739155281,9.08485285175E-08,1084.14128691,1.12157302239296E-08,5.62445386608838E-08,-7.04571813242526E-08,4.12156982204506E-08,5.72322961897576E-07,6.47183985556075E-11,0.004236568322956,0.078942816843511,-3.95611764653081E-07,6.33977223853206,-0.109961315807442,-31.4320910682336,1.12157302239296E-08,5.62445386608838E-08,-7.04571813242526E-08,1082.58347888856,-58.0976868376578,1.01967344299033E-08,-7.77334811144865E-09,-8.99391839066595E-08,1.01967344323132E-08,-5.62492659755211E-08,-2.93617418951026E-09,-7.12801100874904E-08,0.00237686392,3.737199857E-07,0.0001572323861,518.6675475,2116.228,2116.175407,0,0,0,0,0,0,0,0,0.05273832175,0,-0.01032494063,0,0.06369013378,0,-0.01032494063,0,0.1133088485,0.1342341375,4.318855716,8.7401574936,0,1.8110236248,0.68772317841649,0.68772317841649,0.003876313822833,11.4034171961907,90.0007670789062,0.703606112619905,-0.070227319906253,0.070273981621608,0.703610779798386,-0.380420326594741,0.917025047303,-0.062876421552134,0.101941127321085,-0.380423875932116,0.917027236110708,-0.062844490839128,0.101927881079123,0,0,44.725800999856,44.917901270458,-93.075866,-796719.288542736,-14845946.3255355,14725685.6884467,-797753.153832326,-14845890.8062456,14725685.6884467,0.00399006079629,0.68772317841649,0,6.33977211667316,-0.109961216916091,-31.4320912378926,1.02262326952324E-05,-5.18090810016011E-05,-5.02830703842758E-05,1.02262326952324E-05,-5.18090810016011E-05,-5.02830703842758E-05,0.783965270255239,-1.62448031584505,0.209618024781346,-1.71447762693388E-08,-8.94945892962728E-10,-2.17261775546671E-08,101323.028692163,4.3622366762206E-16,14.9986374828821
0.98,1.98268795947629E-06,-7.32587619751497E-07,4.08001709832061E-07,-9.17811388900278E-05,8.71983993088713E-05,-2.76490668953843E-05,0.000583262249984,-0.00296937677455,-0.002881530446766,1.199497001E-18,0.0001657278374,3.17696493801E-08,1084.14128692,1.40103341226107E-08,2.36872437035007E-08,-1.58724807525293E-08,1.65553189324048E-06,-1.29429758861932E-06,-1.53246289598475E-05,0.004234494035614,0.078933327361048,1.17258941681186E-05,6.33977385115307,-0.109963227138431,-31.4321063931157,1.40103341226107E-08,2.36872437035007E-08,-1.58724807525293E-08,1082.58356363517,-58.0961079132278,-3.93280836213185E-09,8.98706990082533E-09,-3.02171510065318E-08,-3.93280836306236E-09,-2.36884593776447E-08,1.05955209129073E-08,-1.83276417160599E-08,0.00237686392,3.737199857E-07,0.0001572323861,518.6675475,2116.228,2116.175407,0,0,0,0,0,0,0,0,0.05273832175,0,-0.01032494063,0,0.06369013378,0,-0.01032494063,0,0.1133088485,0.1342341375,4.318855716,8.7401574936,0,1.8110236248,0.68772317841649,0.68772317841649,0.003876395319955,11.4034171931709,90.0007670948442,0.703606112573887,-0.070227319397078,0.070273982093699,0.703610779848169,-0.380420327237298,0.917025047037064,-0.062876421597473,0.101941127288029,-0.380423950901546,0.917027281671474,-0.062843822177653,0.101927603636551,0,0,44.725800999856,44.917901270458,-93.075866,-796697.63687231,-14845947.4874735,14725685.6884467,-797753.153832326,-14845890.8062456,14725685.6884467,0.004073622278934,0.68772317841649,0,6.33977248915704,-0.109963607008789,-31.4320885283434,1.01798466648118E-05,-5.18254014481429E-05,-5.02921937925372E-05,1.01798466648118E-05,-5.18254014481429E-05,-5.02921937925372E-05,0.783965270255239,-1.62448031584505,0.209618024781346,-7.22024241830611E-09,3.22951477425414E-09,-5.58626519505506E-09,101323.028692163,1.3572885996447E-16,14.9986374828821
1,2.54281749087544E-06,5.58192418157847E-07,4.75437610557124E-07,-0.000436052547897,-7.36249716788441E-05,-8.26165015780647E-05,0.000583822378617,-0.002968085996969,-0.002881463008516,1.643331285E-17,0.0006134207204,1.17591356491E-07,1084.14128691,1.76797564522909E-08,2.4658127140325E-08,-1.13609551091122E-07,-5.9165626724727E-07,-4.12707036406834E-06,5.81661288343139E-06,0.004237265994487,0.078950237069233,-1.15671178622934E-06,6.33977159954453,-0.109966086706378,-31.4320852526777,1.76797564522909E-08,2.4658127140325E-08,-1.13609551091122E-07,1082.5836483433,-58.0945291167279,6.33046231152822E-08,-1.04345069645988E-08,-9.85462981517912E-08,6.3304623130277E-08,-2.46657448331019E-08,-5.13165695635614E-09,-1.1486076028563E-07,0.00237686392,3.737199857E-07,0.0001572323861,518.6675475,2116.228,2116.175407,0,0,0,0,0,0,0,0,0.05273832175,0,-0.01032494063,0,0.06369013378,0,-0.01032494063,0,0.1133088485,0.1342341375,4.318855716,8.7401574936,0,1.8110236248,0.68772317841649,0.68772317841649,0.003876444165788,11.4034171851277,90.0007671045579,0.703606112549156,-0.070227319053724,0.070273982338277,0.703610779882837,-0.380420327625738,0.917025046883255,-0.062876421605263,0.101941127217784,-0.380424025616656,0.917027327343878,-0.06284315347859,0.101927326156742,0,0,44.725800999856,44.917901270458,-93.075866,-796675.985200191,-14845948.6493799,14725685.6884467,-797753.153832326,-14845890.8062456,14725685.6884467,0.004157183761579,0.68772317841649,0,6.33977277646506,-0.109963441419643,-31.4320976657003,1.01896227536969E-05,-5.18028731294509E-05,-5.02910167730324E-05,1.01896227536969E-05,-5.18028731294509E-05,-5.02910167730324E-05,0.783965270255239,-1.62448031584505,0.209618024781346,-7.51811902512945E-09,-1.56412904029735E-09,-3.500955973506E-08,101323.028692163,5.81393819869034E-16,14.9986374828821
1.02,-3.2162940868213E-06,-1.65125038732642E-07,-6.40469587131023E-07,0.000127794114326,1.33475094482631E-05,3.47599111318289E-05,0.000578063267061,-0.002968809314217,-0.002882578915926,9.038119709E-18,0.0004549198892,8.72071077663E-08,1084.14128691,1.76107541374031E-08,-3.65825553495339E-08,-7.71793860286989E-08,1.26215862108432E-06,1.40934224901468E-06,-7.08995884673619E-06,0.004235712880393,0.078937155804422,4.07007821019711E-06,6.33977345302366,-0.109960548007355,-31.4320981593287,1.76107541374031E-08,-3.65825553495339E-08,-7.71793860286989E-08,1082.58373307934,-58.0929501837782,8.16796425287888E-08,3.64719858951495E-10,-3.05513112548344E-08,8.16796425481578E-08,3.65773067506789E-08,2.00352300707859E-09,-7.91401678870279E-08,0.00237686392,3.737199857E-07,0.0001572323861,518.6675475,2116.228,2116.175407,0,0,0,0,0,0,0,0,0.05273832175,0,-0.01032494063,0,0.06369013378,0,-0.01032494063,0,0.1133088485,0.1342341375,4.318855716,8.7401574936,0,1.8110236248,0.68772317841649,0.68772317841649,0.00387643999624,11.4034171845307,90.0007671035319,0.703606112553314,-0.070227319075026,0.070273982309633,0.703610779879508,-0.380420327593462,0.917025046897551,-0.062876421598791,0.101941127214149,-0.380424099910849,0.917027373183897,-0.062842484765227,0.101927048743505,0,0,44.725800999856,44.917901270458,-93.075866,-796654.333526376,-14845949.8112546,14725685.6884467,-797753.153832326,-14845890.8062456,14725685.6884467,0.004240745244224,0.68772317841649,0,6.33977233267165,-0.109963909882165,-31.432092481267,1.0089107295058E-05,-5.18154973969576E-05,-5.03104930314789E-05,1.0089107295058E-05,-5.18154973969576E-05,-5.03104930314789E-05,0.783965270255239,-1.62448031584505,0.209618024781346,1.11487630976069E-08,6.10673812557554E-10,-2.41219231719661E-08,101323.028692163,3.05772932035329E-16,14.9986374828821
1.04,-1.02665581875718E-06,-9.27969473539305E-07,-2.593279419662E-07,-2.69157938735736E-05,7.62789463205537E-06,1.00616459777632E-05,0.000580252905645,-0.0029695721563,-0.00288219777664,3.174167843E-18,0.0002695943733,5.16806280118E-08,1084.14128692,1.46465684658253E-08,-1.74983479178379E-08,-4.63699597154592E-08,3.08513072469297E-07,8.47529817188386E-07,4.02506148412291E-06,0.00423730191694,0.078945353375646,-3.33029137764007E-06,6.33977249800834,-0.109961084168316,-31.4320870446784,1.46465684658253E-08,-1.74983479178379E-08,-4.63699597154592E-08,1082.58381780592,-58.0913713104372,4.64557313487745E-08,3.99918504789674E-09,-2.22880877399494E-08,4.64557313598031E-08,1.74951412060615E-08,5.18936248628758E-09,-4.83516066278162E-08,0.00237686392,3.737199857E-07,0.0001572323861,518.6675475,2116.228,2116.175407,0,0,0,0,0,0,0,0,0.05273832175,0,-0.01032494063,0,0.06369013378,0,-0.01032494063,0,0.1133088485,0.1342341375,4.318855716,8.7401574936,0,1.8110236248,0.68772317841649,0.68772317841649,0.003876393236587,11.4034171820072,90.000767094809,0.703606112579812,-0.070227319341287,0.070273982012368,0.70361077985622,-0.38042032722688,0.917025047054038,-0.062876421562079,0.101941127197606,-0.380424173870534,0.91702741916562,-0.062841816021585,0.101926771317318,0,0,44.725800999856,44.917901270458,-93.075866,-796632.681850867,-14845950.9730979,14725685.6884467,-797753.153832326,-14845890.8062456,14725685.6884467,0.004324306726869,0.68772317841649,0,6.33977158380954,-0.109962220224259,-31.4320898361399,1.01273236977759E-05,-5.1828811502983E-05,-5.03038408960338E-05,1.01273236977759E-05,-5.1828811502983E-05,-5.03038408960338E-05,0.783965270255239,-1.62448031584505,0.209618024781346,5.33251903960754E-09,1.58171768582045E-09,-1.47375697001584E-08,101323.028692163,4.22072301847457E-17,14.9986374828821
1.06,7.23050176349274E-07,-8.33679896676227E-07,1.25557662980216E-07,-0.000165452956571,-4.43874736094845E-05,-3.2065489573853E-05,0.000582002610933,-0.002969477866038,-0.002881812891885,3.235290524E-19,8.607014269E-05,1.64994505331E-08,1084.14128693,1.57964881964697E-08,-4.74696635031468E-09,-4.11265149838167E-10,-1.47629447894554E-07,5.88456637612422E-07,-2.03232308690867E-06,0.004235331504052,0.078941480782075,9.68575477253153E-07,6.33977203258186,-0.109961335760997,-31.432093103965,1.57964881964697E-08,-4.74696635031468E-09,-4.11265149838167E-10,1082.58390253798,-58.0897924229401,5.85424524465102E-09,1.5425940223416E-08,6.98449593255006E-12,5.85424524604238E-09,4.74673229084943E-09,1.5403342232159E-08,-3.5266767073821E-09,0.00237686392,3.737199857E-07,0.0001572323861,518.6675475,2116.228,2116.175407,0,0,0,0,0,0,0,0,0.05273832175,0,-0.01032494063,0,0.06369013378,0,-0.01032494063,0,0.1133088485,0.1342341375,4.318855716,8.7401574936,0,1.8110236248,0.68772317841649,0.68772317841649,0.003876379598264,11.4034171650812,90.0007670919787,0.703606112599253,-0.070227319319358,0.070273981826429,0.703610779857634,-0.380420327129071,0.91702504711408,-0.062876421495359,0.101941127064164,-0.380424248098785,0.917027465050409,-0.062841147247905,0.101926493774168,0,0,44.725800999856,44.917901270458,-93.075866,-796611.030173664,-14845952.1349095,14725685.6884467,-797753.153832326,-14845890.8062456,14725685.6884467,0.004407868209514,0.68772317841649,0,6.33977174720644,-0.109963439843362,-31.432082633127,1.01578618159772E-05,-5.18271658274509E-05,-5.02971233898156E-05,1.01578618159772E-05,-5.18271658274509E-05,-5.02971233898156E-05,0.783965270255239,-1.62448031584505,0.209618024781346,1.44680400225091E-09,4.69493871236207E-09,-1.07493106041007E-09,101323.028692163,3.24800573988963E-16,14.9986374828821
1.08,-1.71459495599044E-07,3.51806430354634E-07,-2.76253631903286E-08,-1.41541813699348E-05,4.32585202479309E-05,-4.11959451493819E-06,0.000581108100668,-0.002968292379839,-0.0028819660749,1.162858686E-19,5.160114646E-05,9.89182237806E-09,1084.14128691,-1.16028147225527E-09,-2.64223575338539E-09,-9.46152667849203E-09,-7.46255960812585E-07,-5.97658630641096E-08,-1.54992077879971E-07,0.004235100057616,0.078943343646111,5.09386500757714E-08,6.3397714276091,-0.109961985376721,-31.4320912279154,-1.16028147225527E-09,-2.64223575338539E-09,-9.46152667849203E-09,1082.58398723765,-58.0882135620236,8.24230167586389E-09,-3.24883260836012E-09,-4.39973859643999E-09,8.24230167782499E-09,2.64163589535165E-09,-3.00807012886917E-09,-9.04551954719126E-09,0.00237686392,3.737199857E-07,0.0001572323861,518.6675475,2116.228,2116.175407,0,0,0,0,0,0,0,0,0.05273832175,0,-0.01032494063,0,0.06369013378,0,-0.01032494063,0,0.1133088485,0.1342341375,4.318855716,8.7401574936,0,1.8110236248,0.68772317841649,0.68772317841649,0.003876382140754,11.403417153512,90.0007670921896,0.703606112606654,-0.070227319232835,0.070273981770871,0.703610779864512,-0.38042032715565,0.917025047115999,-0.062876421456418,0.101941126972245,-0.380424322451224,0.917027510876588,-0.062840478501972,0.101926216272482,0,0,44.725800999856,44.917901270458,-93.075866,-796589.378494766,-14845953.2966896,14725685.6884467,-797753.153832326,-14845890.8062456,14725685.6884467,0.004491429692158,0.68772317841649,0,6.33977154982122,-0.109962131975597,-31.4320908875745,1.01422496666629E-05,-5.18064751900463E-05,-5.02997969377748E-05,1.01422496666629E-05,-5.18064751900463E-05,-5.02997969377748E-05,0.783965270255239,-1.62448031584505,0.209618024781346,8.05170620903182E-10,-9.16859775279323E-10,-2.7570743579839E-09,101323.028692163,2.04524731356893E-17,14.9986374828821
1.1,-3.0904683052172E-07,1.07626811085647E-06,-5.88399431559788E-08,-0.000253667970834,-9.65041067735277E-05,-5.50746380476871E-05,0.000580970514044,-0.002967567917908,-0.002881997289595,2.769734543E-19,7.963701144E-05,1.52662339097E-08,1084.1412869,-1.06538672439429E-08,-3.59039127506619E-09,-1.03277345543997E-08,-3.9583985268676E-07,-3.26686179212554E-06,7.38324953099255E-06,0.004237215801705,0.078950698754075,-2.8212714712067E-06,6.33977178527519,-0.109965189737421,-31.4320836882264,-1.06538672439429E-08,-3.59039127506619E-09,-1.03277345543997E-08,1082.58407194429,-58.0866346946721,8.19267756618133E-09,-1.26376281990058E-08,-2.49565334323358E-09,8.1926775681328E-09,3.58985969914353E-09,-1.24855096519213E-08,-8.01765887984338E-09,0.00237686392,3.737199857E-07,0.0001572323861,518.6675475,2116.228,2116.175407,0,0,0,0,0,0,0,0,0.05273832175,0,-0.01032494063,0,0.06369013378,0,-0.01032494063,0,0.1133088485,0.1342341375,4.318855716,8.7401574936,0,1.8110236248,0.68772318214178,0.68772318214178,0.003876377156401,11.4034171667249,90.0007670912672,0.703606112601214,-0.070227319343999,0.070273981821955,0.703610779853851,-0.380420327109201,0.917025047120727,-0.06287642149734,0.101941127078332,-0.380424396730439,0.917027556705092,-0.06283980983587,0.101925938968751,0,0,44.725800999856,44.917901270458,-93.075866,-796567.726814175,-14845954.458438,14725685.6884467,-797753.153832326,-14845890.8062456,14725685.6884467,0.004574991174803,0.68772318214178,0,6.33977189622927,-0.109961964826787,-31.4320913116129,1.01398483270735E-05,-5.17938309440483E-05,-5.03003417369801E-05,1.01398483270735E-05,-5.17938309440483E-05,-5.03003417369801E-05,0.783965270255239,-1.62448031584505,0.209618025916815,1.09418923629895E-09,-3.8055833419056E-09,-2.44378242657626E-09,101323.028692149,1.28239011762627E-17,14.9986374828747
1.12,-2.22056887770685E-06,6.44892332841956E-07,-4.77200739662818E-07,-4.45738184297078E-06,-1.50285196204492E-05,1.49906270668391E-05,0.000579058993212,-0.002967999292494,-0.002882415651375,3.512207092E-18,0.0002835867516,5.43629350807E-08,1084.1412869,-1.59934429885792E-08,-3.4152835349738E-08,3.91551060467528E-08,1.68492161400737E-06,1.72118946600852E-06,-7.24379104040266E-06,0.004235500019081,0.078936780667041,4.01345898935757E-06,6.33977387673874,-0.109960188677194,-31.4320983131578,-1.59934429885792E-08,-3.4152835349738E-08,3.91551060467528E-08,1082.58415666561,-58.0850557727047,-4.96679821215771E-09,-5.05127128921903E-09,5.38993903969525E-08,-4.96679821334211E-09,3.41555905737557E-08,-7.93613886659626E-09,4.15420515109751E-08,0.00237686392,3.737199857E-07,0.0001572323861,518.6675475,2116.228,2116.175407,0,0,0,0,0,0,0,0,0.05273832175,0,-0.01032494063,0,0.06369013378,0,-0.01032494063,0,0.1133088485,0.1342341375,4.318855716,8.7401574936,0,1.8110236248,0.68772317841649,0.68772317841649,0.003876353442092,11.403417186233,90.0007670866572,0.703606112603079,-0.070227319606559,0.070273981798947,0.703610779828172,-0.380420326912029,0.917025047181598,-0.062876421546243,0.101941127236919,-0.380424470858732,0.91702760258925,-0.062839141177712,0.101925661717472,0,0,44.725800999856,44.917901270458,-93.075866,-796546.075131888,-14845955.6201549,14725685.6884467,-797753.153832326,-14845890.8062456,14725685.6884467,0.004658552657448,0.68772317841649,0,6.33977131456248,-0.109964670736731,-31.4320844525803,1.01064859948353E-05,-5.18013598508765E-05,-5.03076435275142E-05,1.01064859948353E-05,-5.18013598508765E-05,-5.03076435275142E-05,0.783965270255239,-1.62448031584505,0.209618024781346,1.04106240068807E-08,-2.41893512653854E-09,1.26620173005452E-08,101323.028692163,2.42752202456657E-17,14.9986374828821
1.14,-1.00187945006326E-06,-2.48548823573001E-07,-2.01221519677305E-07,1.43623485163991E-05,-4.38586910347707E-05,1.11407498080661E-06,0.000580277683327,-0.002968892731812,-0.00288213967391,3.809472691E-19,9.339600772E-05,1.79038021938E-08,1084.14128692,6.43065174300243E-09,-1.37285622617225E-08,-9.5246747650689E-09,4.0505237867404E-07,4.06038404218712E-07,-7.99387296511935E-07,0.004235704121359,0.078942371533599,3.2465511014268E-07,6.33977260042388,-0.109961483782352,-31.4320918681103,6.43065174300243E-09,-1.37285622617225E-08,-9.5246747650689E-09,1082.58424138662,-58.0834769590253,1.72191174905791E-08,4.52807521421045E-09,1.88272691305902E-09,1.72191174946898E-08,1.37278586634968E-08,4.42052814101845E-09,-1.06090037487106E-08,0.00237686392,3.737199857E-07,0.0001572323861,518.6675475,2116.228,2116.175407,0,0,0,0,0,0,0,0,0.05273832175,0,-0.01032494063,0,0.06369013378,0,-0.01032494063,0,0.1133088485,0.1342341375,4.318855716,8.7401574936,0,1.8110236248,0.68772317841649,0.68772317841649,0.003876316898917,11.4034171926755,90.0007670795118,0.703606112620658,-0.07022731986611,0.070273981618497,0.703610779802805,-0.380420326621164,0.91702504729638,-0.062876421542855,0.10194112729243,-0.380424544893125,0.917027648526831,-0.062838472467227,0.101925384363068,0,0,44.725800999856,44.917901270458,-93.075866,-796524.423447908,-14845956.7818403,14725685.6884467,-797753.153832326,-14845890.8062456,14725685.6884467,0.004742114140093,0.68772317841649,0,6.33977281441312,-0.109961632893329,-31.4320901606804,1.0127756149893E-05,-5.18169533086551E-05,-5.03028268120935E-05,1.0127756149893E-05,-5.18169533086551E-05,-5.03028268120935E-05,0.783965270255239,-1.62448031584505,0.209618024781346,4.18425132063383E-09,1.34737697738242E-09,-3.233624342607E-09,101323.028692163,3.25149542694262E-17,14.9986374828821
1.16,2.14697443592023E-06,-3.94443325457375E-08,3.75902787277257E-07,6.32385934006423E-05,3.37171855153696E-05,3.11652083713324E-05,0.000583426537127,-0.002968683626711,-0.00288156255025,1.023172129E-17,0.0004840277164,9.2787012019E-08,1084.14128691,1.33693797407848E-08,1.83720839727329E-08,-8.99619687160322E-08,1.22647396897952E-07,2.62348087917696E-06,2.5593219874973E-06,0.004236019544957,0.078943174463104,-3.60694632133007E-06,6.33977231590232,-0.10995925968219,-31.4320885098565,1.33693797407848E-08,1.83720839727329E-08,-8.99619687160322E-08,1082.58432608239,-58.0818981721923,5.08598021917513E-08,-8.83132095776332E-09,-7.71019966758118E-08,5.08598022039065E-08,-1.83781075718119E-08,-4.68144332596504E-09,-9.08281831368497E-08,0.00237686392,3.737199857E-07,0.0001572323861,518.6675475,2116.228,2116.175407,0,0,0,0,0,0,0,0,0.05273832175,0,-0.01032494063,0,0.06369013378,0,-0.01032494063,0,0.1133088485,0.1342341375,4.318855716,8.7401574936,0,1.8110236248,0.68772317841649,0.68772317841649,0.003876304764231,11.4034171887893,90.0007670773501,0.703606112628923,-0.070227319915426,0.070273981521447,0.703610779799405,-0.380420326527758,0.917025047339909,-0.062876421523443,0.10194112726192,-0.380424619124771,0.917027694392671,-0.062837803740688,0.10192510692258,0,0,44.725800999856,44.917901270458,-93.075866,-796502.771762233,-14845957.943494,14725685.6884467,-797753.153832326,-14845890.8062456,14725685.6884467,0.004825675622738,0.68772317841649,0,6.33977211209545,-0.109960799700157,-31.4320962923156,1.0182714016368E-05,-5.18133037361603E-05,-5.02927541040263E-05,1.0182714016368E-05,-5.18133037361603E-05,-5.02927541040263E-05,0.783965270255239,-1.62448031584505,0.209618024781346,-5.60164718788828E-09,-1.42690392575414E-09,-2.76844302201118E-08,101323.028692163,8.54239121224929E-17,14.9986374828821
1.18,-4.80819196762097E-07,-1.16492439519008E-06,-9.85739042604388E-08,7.48286123528948E-05,3.17245324802936E-05,1.98727419885276E-05,0.000580798742734,-0.002969809108458,-0.002882037025361,1.87177899E-18,0.0002070251768,3.9686255385E-08,1084.14128692,1.51050911324878E-08,2.95488761368008E-09,-3.6580100157774E-08,3.75588174705208E-07,-6.8266569815123E-07,2.69404820148836E-06,0.004236306352402,0.07894554723379,-1.31556652817333E-06,6.33977256397613,-0.109962584195566,-31.4320883760508,1.51050911324878E-08,2.95488761368008E-09,-3.6580100157774E-08,1082.58441080402,-58.0803192591898,2.52340826582131E-08,5.97098706201097E-09,-3.00430899286162E-08,2.52340826642506E-08,-2.95746383762495E-09,7.57444335624561E-09,-3.88443056618601E-08,0.00237686392,3.737199857E-07,0.0001572323861,518.6675475,2116.228,2116.175407,0,0,0,0,0,0,0,0,0.05273832175,0,-0.01032494063,0,0.06369013378,0,-0.01032494063,0,0.1133088485,0.1342341375,4.318855716,8.7401574936,0,1.8110236248,0.68772317841649,0.68772317841649,0.0038763382412,11.4034171799518,90.0007670835479,0.703606112616848,-0.070227319659405,0.070273981668935,0.703610779822398,-0.380420326796141,0.917025047237412,-0.062876421514068,0.101941127188707,-0.380424693718003,0.917027740111996,-0.062837135024159,0.101924829439318,0,0,44.725800999856,44.917901270458,-93.075866,-796481.120074864,-14845959.1051162,14725685.6884467,-797753.153832326,-14845890.8062456,14725685.6884467,0.004909237105383,0.68772317841649,0,6.33977253358961,-0.10996162517456,-31.4320969411527,1.01368503521584E-05,-5.18329470983154E-05,-5.03010352569246E-05,1.01368503521584E-05,-5.18329470983154E-05,-5.03010352569246E-05,0.783965270255239,-1.62448031584505,0.209618024781346,-9.01434977708086E-10,2.30869033498366E-09,-1.1839744365735E-08,101323.028692163,4.91340151686561E-17,14.9986374828821
1.2,-2.30547775733862E-07,2.73831148750502E-07,-5.64355906573181E-08,-2.01381329015484E-05,7.04647171723793E-05,6.87516574203407E-07,0.000581049013539,-0.002968370352649,-0.002881994887445,2.221566752E-19,7.132233676E-05,1.36723296894E-08,1084.14128691,-2.78441258679088E-09,-3.61219960593457E-09,-1.28892071008902E-08,-5.11478169863413E-07,1.69257690640912E-08,2.72055571855988E-07,0.004234734660782,0.078943574003744,-2.65420681017092E-07,6.33977166959885,-0.109961881706969,-31.4320907995338,-2.78441258679088E-09,-3.61219960593457E-09,-1.28892071008902E-08,1082.58449549697,-58.0787403688343,1.10698645612588E-08,-5.59457583804627E-09,-5.75251413818669E-09,1.10698645639104E-08,3.61139824270242E-09,-5.27784647887214E-09,-1.20844833757621E-08,0.00237686392,3.737199857E-07,0.0001572323861,518.6675475,2116.228,2116.175407,0,0,0,0,0,0,0,0,0.05273832175,0,-0.01032494063,0,0.06369013378,0,-0.01032494063,0,0.1133088485,0.1342341375,4.318855716,8.7401574936,0,1.8110236248,0.68772317841649,0.68772317841649,0.003876332961987,11.4034171666276,90.0007670824867,0.703606112628343,-0.070227319609351,0.070273981555354,0.703610779827339,-0.380420326761994,0.917025047266709,-0.062876421466056,0.101941127082728,-0.3804247680085,0.917027785962627,-0.062836466268954,0.10192455192325,0,0,44.725800999856,44.917901270458,-93.075866,-796459.468385801,-14845960.2667068,14725685.6884467,-797753.153832326,-14845890.8062456,14725685.6884467,0.004992798588027,0.68772317841649,0,6.33977115311768,-0.109962181020455,-31.4320917492346,1.01412184017179E-05,-5.18078360723152E-05,-5.03002998115619E-05,1.01412184017179E-05,-5.18078360723152E-05,-5.03002998115619E-05,0.783965270255239,-1.62448031584505,0.209618024781346,1.1007541843757E-09,-1.60868760676023E-09,-3.68335053293228E-09,101323.028692163,5.64130763123999E-18,14.9986374828821
1.22,-2.46745129501778E-07,4.63419546619897E-07,-8.88771694220124E-08,-0.000286689669259,-2.53695409839453E-05,-5.09081364280446E-05,0.000581032816762,-0.002968180763922,-0.002882027329248,2.276114183E-19,7.219263649E-05,1.38391641677E-08,1084.1412869,-8.68284485304237E-09,-5.51834328779878E-09,-9.25627125118938E-09,-1.56830465344638E-07,-3.04509150346466E-06,7.1520430726904E-06,0.004236694460458,0.078950375529254,-2.78607632663019E-06,6.33977202992322,-0.109964940128032,-31.4320839184188,-8.68284485304237E-09,-5.51834328779878E-09,-9.25627125118938E-09,1082.58458019439,-58.07716149768,9.09769436372628E-09,-1.03987774706242E-08,-7.8730505300479E-10,9.09769436590785E-09,5.51785550070571E-09,-1.03415512057616E-08,-7.35717705628055E-09,0.00237686392,3.737199857E-07,0.0001572323861,518.6675475,2116.228,2116.175407,0,0,0,0,0,0,0,0,0.05273832175,0,-0.01032494063,0,0.06369013378,0,-0.01032494063,0,0.1133088485,0.1342341375,4.318855716,8.7401574936,0,1.8110236248,0.68772318214178,0.68772318214178,0.003876326407343,11.403417176973,90.0007670813717,0.70360611262488,-0.070227319712432,0.070273981579307,0.703610779818215,-0.380420326704689,0.917025047279178,-0.062876421497312,0.101941127165653,-0.380424842275646,0.917027831795945,-0.062835797592985,0.101924274596033,0,0,44.725800999856,44.917901270458,-93.075866,-796437.816695044,-14845961.4282658,14725685.6884467,-797753.153832326,-14845890.8062456,14725685.6884467,0.005076360070672,0.68772318214178,0,6.3397711224378,-0.10996239317705,-31.4320906226385,1.01409357146318E-05,-5.18045271248016E-05,-5.03008660278295E-05,1.01409357146318E-05,-5.18045271248016E-05,-5.03008660278295E-05,0.783965270255239,-1.62448031584505,0.209618025916815,1.6818423566151E-09,-3.15210480751614E-09,-2.24246756675431E-09,101323.028692149,1.34373934512043E-17,14.9986374828747
1.24,4.06175925547244E-07,-7.31776632823643E-08,6.04519848600123E-08,0.00012705852504,5.70587096548173E-05,3.10452858544497E-05,0.000581685738346,-0.002968717360236,-0.00288187800091,6.594263371E-20,3.885787299E-05,7.4489658456E-09,1084.14128691,4.65469157759239E-09,-5.31590672132647E-09,-2.35840501536757E-09,4.80228290758319E-07,3.65605427568583E-06,-9.10024439398523E-06,0.004233130413199,0.078934418893894,3.75165092905694E-06,6.33977267086921,-0.109958229206702,-31.4321001699593,4.65469157759239E-09,-5.31590672132647E-09,-2.35840501536757E-09,1082.58466490887,-58.0755826293563,6.05147011320575E-09,4.16809693075716E-09,1.22219867836323E-09,6.05147011465846E-09,5.31569230941816E-09,4.09651121705434E-09,-3.23250727800032E-09,0.00237686392,3.737199857E-07,0.0001572323861,518.6675475,2116.228,2116.175407,0,0,0,0,0,0,0,0,0.05273832175,0,-0.01032494063,0,0.06369013378,0,-0.01032494063,0,0.1133088485,0.1342341375,4.318855716,8.7401574936,0,1.8110236248,0.68772317841649,0.68772317841649,0.003876308585023,11.4034171840489,90.0007670779517,0.703606112630668,-0.070227319863209,0.070273981515413,0.703610779803855,-0.380420326560645,0.917025047331688,-0.062876421509254,0.10194112722398,-0.380424916455849,0.917027877668817,-0.062835128897665,0.101923997244167,0,0,44.725800999856,44.917901270458,-93.075866,-796416.165002593,-14845962.5897933,14725685.6884467,-797753.153832326,-14845890.8062456,14725685.6884467,0.005159921553317,0.68772317841649,0,6.33977210625726,-0.109962922703113,-31.4320846965096,1.0152331346038E-05,-5.18138924972326E-05,-5.02982597566778E-05,1.0152331346038E-05,-5.18138924972326E-05,-5.02982597566778E-05,0.783965270255239,-1.62448031584505,0.209618024781346,1.62022301591066E-09,1.24861661895816E-09,-9.85268218334499E-10,101323.028692163,1.56790265689692E-16,14.9986374828821
1.26,-8.88982894698706E-07,-8.61037841337041E-07,-1.87286239705648E-07,-8.51247131786148E-05,3.32845812947591E-07,-1.62669501358738E-05,0.000580390579508,-0.002969505221198,-0.002882125738332,3.490619672E-18,0.0002827138898,5.41956094698E-08,1084.14128693,7.33954141010835E-09,-2.26307585396073E-08,4.86943937801724E-08,4.06800339322792E-07,1.27988522831413E-06,-8.599265269761E-06,0.004233151129833,0.078936451979115,5.08421521966396E-06,6.33977259883031,-0.109960613920185,-31.4320996686731,7.33954141010835E-09,-2.26307585396073E-08,4.86943937801724E-08,1082.58474962173,-58.0740037163043,-1.64873213152542E-08,1.94170875344097E-08,4.78362732025714E-08,-1.64873213192165E-08,2.26338276740262E-08,1.68223058740788E-08,4.62804921799076E-08,0.00237686392,3.737199857E-07,0.0001572323861,518.6675475,2116.228,2116.175407,0,0,0,0,0,0,0,0,0.05273832175,0,-0.01032494063,0,0.06369013378,0,-0.01032494063,0,0.1133088485,0.1342341375,4.318855716,8.7401574936,0,1.8110236248,0.68772317841649,0.68772317841649,0.003876324157425,11.4034171866039,90.0007670808334,0.703606112621,-0.070227319785043,0.070273981624947,0.70361077981048,-0.380420326681849,0.917025047278103,-0.062876421527024,0.101941127243263,-0.380424990901096,0.917027923435106,-0.062834460208146,0.101923719853192,0,0,44.725800999856,44.917901270458,-93.075866,-796394.513308448,-14845963.7512891,14725685.6884467,-797753.153832326,-14845890.8062456,14725685.6884467,0.005243483035962,0.68772317841649,0,6.339772167386,-0.109966019685869,-31.4320784206526,1.01297265599735E-05,-5.1827643265063E-05,-5.03025835903676E-05,1.01297265599735E-05,-5.1827643265063E-05,-5.03025835903676E-05,0.783965270255239,-1.62448031584505,0.209618024781346,6.89879067504318E-09,5.1274388304192E-09,1.41062940164359E-08,101323.028692163,9.31914791445103E-17,14.9986374828821
1.28,-6.13144904981193E-07,3.41071989455703E-07,-9.85627861435179E-08,1.97816499542476E-05,1.63231284905536E-05,-4.00728782749371E-06,0.000580666416986,-0.002968303110478,-0.002882037015898,1.064279853E-19,4.936552961E-05,9.46325971424E-09,1084.14128691,2.05931735136129E-09,-6.82303574284564E-09,-6.22564693163894E-09,-1.08099775675304E-06,-8.29349232345233E-09,-5.69451544191914E-07,0.00423352435114,0.07894314984242,2.5373939166462E-07,6.33977110343146,-0.109961892397376,-31.4320916404324,2.05931735136129E-09,-6.82303574284564E-09,-6.22564693163894E-09,1082.58483429842,-58.0724248974491,9.42877854341653E-09,7.96047620504248E-10,1.33145646032665E-10,9.42877854568501E-09,6.82260399022368E-09,7.8775644640544E-10,-6.51036089740565E-09,0.00237686392,3.737199857E-07,0.0001572323861,518.6675475,2116.228,2116.175407,0,0,0,0,0,0,0,0,0.05273832175,0,-0.01032494063,0,0.06369013378,0,-0.01032494063,0,0.1133088485,0.1342341375,4.318855716,8.7401574936,0,1.8110236248,0.68772317841649,0.68772317841649,0.00387630647544,11.4034171727236,90.0007670771534,0.703606112641314,-0.070227319806123,0.070273981433402,0.703610779807288,-0.380420326550613,0.917025047348759,-0.062876421467196,0.101941127134834,-0.380425065093695,0.917027969325144,-0.062833791440988,0.101923442334461,0,0,44.725800999856,44.917901270458,-93.075866,-796372.861612609,-14845964.9127534,14725685.6884467,-797753.153832326,-14845890.8062456,14725685.6884467,0.005327044518607,0.68772317841649,0,6.33977229820021,-0.109961545139281,-31.432091860015,1.01345408321681E-05,-5.18066624750297E-05,-5.03010350917762E-05,1.01345408321681E-05,-5.18066624750297E-05,-5.03010350917762E-05,0.783965270255239,-1.62448031584505,0.209618024781346,2.07952969622018E-09,2.40108164864378E-10,-1.98435800152924E-09,101323.028692163,2.50836830877217E-17,14.9986374828821
